accel_x (m/s^2),accel_y (m/s^2),accel_z (m/s^2)
9.571898842835055432e-02,-2.045645608401789467e-03,-9.789452247672965512e+00
1.851050317869449013e-01,-4.247817574951670561e-03,-9.796896038515148675e+00
2.721109992965698443e-01,-7.428742919661294498e-03,-9.796166249716577568e+00
3.403149066248518650e-01,2.051704505905168133e-03,-9.797807960263192228e+00
4.128115341559639995e-01,-8.310219018966159138e-03,-9.785721271749565631e+00
4.711288361189985840e-01,3.521340033429788859e-03,-9.793177127509769875e+00
5.197214372234681967e-01,2.910367144761668440e-03,-9.788636755658661315e+00
5.698818862847142563e-01,9.655429082364597876e-03,-9.786031296494238418e+00
6.130875200693876037e-01,8.864600184366315007e-04,-9.798995171297596229e+00
6.545863976833445896e-01,-2.372975456668995845e-03,-9.793714227781142867e+00
6.759023995011176345e-01,5.953823337707614925e-03,-9.792577146921814801e+00
7.253959248199807197e-01,8.349442699013968558e-03,-9.795101103154435052e+00
7.467834053852926424e-01,4.332625376737527997e-03,-9.798066021289137950e+00
7.714338744100437406e-01,6.024897979427698211e-03,-9.799552775834069251e+00
7.924903372476440611e-01,3.490403271577856119e-03,-9.787958059049424620e+00
8.146641770313967079e-01,-3.319726739022578216e-03,-9.796808484160971275e+00
8.336614550137636526e-01,3.091436528118462514e-03,-9.790823124615346984e+00
8.502458534310496363e-01,-1.035857284754714350e-02,-9.801252868120196027e+00
8.622906146660799243e-01,1.799916416418791522e-03,-9.798461697971440287e+00
8.740700649494645980e-01,5.529582816620737078e-03,-9.793300388590342465e+00
8.883925217114313488e-01,-2.715093996205258063e-03,-9.783048641943878465e+00
8.998602749100876874e-01,-1.358883403044621081e-03,-9.803369699073581245e+00
9.195378787495283035e-01,-5.336488007140054515e-03,-9.790284503067168131e+00
9.186622960558982198e-01,-5.220659254256467333e-03,-9.793252757336333048e+00
9.243952943668326538e-01,5.683231530885569948e-05,-9.788132567504090886e+00
9.335854588028718037e-01,5.964238948167694711e-03,-9.799341609737938441e+00
9.529375013043721587e-01,3.634649044403118982e-03,-9.793911474367074987e+00
9.452788596746679595e-01,9.721910895568716682e-03,-9.796881185246460788e+00
9.394925824545050652e-01,-2.365072798067203216e-03,-9.787127497717309055e+00
9.600326628329379774e-01,-4.574116879720130542e-03,-9.794651185917114589e+00
9.604620868221166452e-01,8.256752851770589405e-04,-9.797303755263886416e+00
9.633258741952704929e-01,2.771824928114741300e-03,-9.789997947489759156e+00
9.732836915128103561e-01,1.063063297513426597e-03,-9.791390029624217561e+00
9.704001102941757217e-01,-5.227364264535534939e-03,-9.789328349083763925e+00
9.758290933688450464e-01,-1.475154255692760535e-04,-9.786036385833256190e+00
9.741377675458430252e-01,-2.757433526087971903e-03,-9.790359262753479896e+00
9.826304501260663127e-01,3.116290990610488896e-03,-9.790239894909124274e+00
9.802695134885429651e-01,-1.080746479485343407e-02,-9.797566642173389795e+00
9.845577956172467671e-01,5.929324174043258677e-03,-9.794214211433109440e+00
9.899318614879089040e-01,1.224173322399702479e-03,-9.801468591203180480e+00
9.936868499669123667e-01,8.120654278969310913e-03,-9.798171209761781242e+00
9.916778915806520045e-01,-5.210113471748749163e-03,-9.803185152689405157e+00
9.933027819895822175e-01,4.402161213627040458e-03,-9.791232991641164674e+00
9.912350214591069131e-01,3.900466503777714426e-03,-9.795307498788083933e+00
9.888784022575978216e-01,1.610002461464468985e-03,-9.788395852192545377e+00
9.941409547538320179e-01,2.210367784530828297e-03,-9.801250354327411429e+00
9.890370091895078763e-01,-1.217593870585361717e-03,-9.797949617797904409e+00
9.891081110436955592e-01,1.601632991745465450e-03,-9.793257053516637001e+00
9.973517541312101331e-01,3.068654060145644628e-03,-9.801434392793268557e+00
9.958693342449661534e-01,-1.032366916991437310e-02,-9.798906757288973424e+00
1.003814611611444585e+00,2.751677894230798900e-03,-9.787780795762094144e+00
1.001078096974104659e+00,7.941138691492909954e-04,-9.788800730187709576e+00
9.972551717557887052e-01,8.531996094675654493e-03,-9.796139125211823284e+00
9.909019184022785920e-01,-9.540246818525077634e-04,-9.788423964940399458e+00
9.997337999890341109e-01,6.311568602917974266e-03,-9.785524047213741028e+00
1.001521403531427046e+00,-5.928118103354559736e-03,-9.800759176302271669e+00
9.922911864276267035e-01,-3.494264568560760068e-03,-9.796530241657343652e+00
9.967302946687620624e-01,6.338702433861696448e-03,-9.784963782515831099e+00
9.979633308123356805e-01,1.498730045626898592e-05,-9.792183142378773297e+00
1.001039877785200982e+00,5.216731172254344961e-04,-9.794671468532083480e+00
9.987181337765645983e-01,-6.958282868248774622e-03,-9.794420541139498226e+00
9.971363132233933557e-01,-3.415400130571819709e-03,-9.791319233525308974e+00
9.980534096724714699e-01,1.506716478913663676e-03,-9.790278707476550935e+00
9.966931035696092733e-01,-8.249792238872082420e-03,-9.792310046932245271e+00
1.000117495301740433e+00,3.888784064772460129e-03,-9.788830405876721485e+00
9.892601418929403145e-01,-8.472159317481369909e-04,-9.797749257385040877e+00
9.957290889385195243e-01,-1.368082266634790267e-03,-9.788467366919835655e+00
9.946806883126664278e-01,8.753891294772744164e-03,-9.796979444814184035e+00
1.002307671229022423e+00,-8.835798700019308755e-03,-9.798844414144816994e+00
1.007407221463774594e+00,3.272626391923403287e-03,-9.796293851819527276e+00
1.005291099385568376e+00,-1.469830459679036900e-03,-9.797364529697704327e+00
1.001299440539776819e+00,-3.822103769507155351e-03,-9.792040959867676975e+00
9.940544940877646951e-01,1.168696054939601689e-04,-9.782022579626058700e+00
9.994310817209628439e-01,1.104940571066256134e-03,-9.781557906719582363e+00
1.001670053773219937e+00,9.736397524244214813e-04,-9.794978501052810316e+00
1.003143962876212436e+00,-6.652015528787661065e-03,-9.791427293179554070e+00
1.003144694300020845e+00,8.943916493146842478e-03,-9.787176120210412833e+00
1.000289583523303882e+00,-4.523833082457473899e-04,-9.794924608001887023e+00
9.952858569605596006e-01,2.498539317622938943e-03,-9.803722822889298527e+00
1.000706097471116385e+00,-1.892003767086200073e-03,-9.796275786679510489e+00
1.000508865032139871e+00,1.603982832353944123e-04,-9.792258106953189767e+00
9.983416643856849459e-01,7.092135920238628634e-03,-9.783509801159638641e+00
1.002317655729469292e+00,-4.056343136976667436e-03,-9.798672995132495345e+00
1.006480779188362984e+00,2.284290548526632120e-03,-9.800187840805055117e+00
9.962999837440457140e-01,7.541959394749361660e-03,-9.778207446427906291e+00
9.992030403895774127e-01,-5.976387876715131371e-04,-9.792891022782360011e+00
9.956795930040894804e-01,3.971302683161479115e-03,-9.792744459801797419e+00
9.978232578391650343e-01,1.059581472151216322e-03,-9.791844294381096603e+00
9.851079280629878587e-01,4.192958170395771379e-03,-9.798791476905845954e+00
9.995332840158078769e-01,-4.115484199555479762e-03,-9.794516384395189235e+00
9.954362488436718781e-01,-4.111472772467853268e-03,-9.793378640561027026e+00
9.954307834112245956e-01,-1.188966242287467067e-03,-9.783246153291093705e+00
9.900349367107457166e-01,-2.201029381898843024e-03,-9.789727103102560335e+00
9.944760121869113956e-01,-3.309786397776617959e-03,-9.795973284547626392e+00
1.009439735587692066e+00,1.866357446514592356e-03,-9.798831110410253231e+00
9.977516469606012572e-01,-9.486679532985482170e-04,-9.793737482623548374e+00
1.000840934269447535e+00,6.900752961589392762e-03,-9.794300717728868122e+00
9.998603345205145931e-01,2.821208013114741460e-03,-9.779830152800094822e+00
1.007189824549176160e+00,-2.370779081160767420e-05,-9.793720454057622149e+00
9.974202543148555922e-01,-4.173120929120469579e-03,-9.796360832607348357e+00
1.001015814547451255e+00,1.167675242963278365e-03,-9.799513866817456176e+00
9.987466444584236491e-01,6.108830739348094022e-03,-9.790921312095989038e+00
9.946497265495193307e-01,6.458500150761908865e-03,-9.788707014110544335e+00
1.003757849150443748e+00,-2.899144563757244213e-03,-9.787454094437750385e+00
9.951134931569578512e-01,-1.260759836961572716e-03,-9.797092533955522597e+00
9.959583911217877450e-01,4.556673599925543938e-03,-9.791507004708693174e+00
9.945422639340428805e-01,-5.491404885250612475e-03,-9.789794441708856709e+00
1.001672101954753424e+00,-3.369998856007043811e-03,-9.788032162958591798e+00
9.940426514900895238e-01,5.321834792461582579e-03,-9.795532802674006945e+00
1.002677586970297741e+00,-2.879024930397968730e-03,-9.793234098623182504e+00
1.002207856259033747e+00,-1.848960052307913179e-03,-9.801240964418608925e+00
9.956105938003700917e-01,-4.712182131405271736e-03,-9.789817803881533109e+00
9.946021115943619595e-01,2.693240365863703656e-04,-9.797964544563278366e+00
9.975776189846643494e-01,-3.919703108188065136e-04,-9.786298616828855046e+00
9.930214071846087398e-01,-5.599737850928185150e-04,-9.792304495674020615e+00
9.982868793870701696e-01,1.658561757631678334e-03,-9.800390889280462758e+00
1.005193530923564227e+00,-7.651731959786763895e-04,-9.797764618581638274e+00
1.003273816501151661e+00,4.505083100158261897e-03,-9.793266307666215198e+00
9.882582415682409360e-01,1.069245980910668581e-03,-9.794939758692308374e+00
1.000613984655542188e+00,-2.208673032184682355e-04,-9.793542099966648706e+00
9.943316727418056722e-01,-5.174454692917634935e-03,-9.789627798391020264e+00
9.992970540624733777e-01,-8.102822602206450481e-03,-9.783203298987501739e+00
9.980828818660870683e-01,1.336160893971769306e-03,-9.792905805378495643e+00
9.969489111382255908e-01,4.031753044114800254e-03,-9.801609991850520842e+00
9.942228212688313249e-01,-3.717589269194531993e-03,-9.785788798499249097e+00
1.001073656811185986e+00,-2.646561419145834759e-03,-9.788607001867356772e+00
9.958462643401092551e-01,-4.901838257543185071e-03,-9.792695925152083092e+00
1.001102336190497155e+00,1.825330782558492516e-04,-9.796654181054966770e+00
1.004514745687389521e+00,7.273731840361415298e-03,-9.793464320996323025e+00
9.888208069285642221e-01,-6.378977822019804740e-03,-9.792482992482604232e+00
1.000222359182439291e+00,6.851347883897939903e-04,-9.793683139566164542e+00
9.985606585892405906e-01,-3.884122248124070170e-03,-9.794839754430366696e+00
9.985904129018619013e-01,-4.277980117961546584e-03,-9.795443939809610256e+00
1.004162729591997705e+00,-3.764267032820744672e-04,-9.799718622455603878e+00
9.992253289493691071e-01,6.674576442148911657e-04,-9.782662810797944530e+00
9.987043367931937032e-01,-4.325097323500278618e-03,-9.795188338984525345e+00
1.000209665627505906e+00,-3.075480055351280644e-04,-9.795253252205327499e+00
9.975847275878549913e-01,-6.837400316701623681e-03,-9.795749606300461210e+00
9.976239980772808602e-01,-8.908010742594656833e-03,-9.793026677814435033e+00
1.000795010296365861e+00,6.683467373135493217e-03,-9.790745260985113774e+00
9.957027282302103321e-01,-1.142803049198787800e-03,-9.797975912203790827e+00
9.896744643573816003e-01,1.913117861643726840e-03,-9.795197387376038733e+00
9.918314474218715704e-01,-2.573500339359888114e-03,-9.787897076324439283e+00
9.992762488144604216e-01,6.097570624099846529e-03,-9.798643340462007245e+00
9.993878157326802070e-01,2.047897476232777951e-03,-9.785033101152887269e+00
1.007356496213723807e+00,-4.238864924892166500e-03,-9.797994610097129353e+00
1.011571408317809340e+00,1.744016084715280723e-03,-9.789517856066952461e+00
9.929134835869229958e-01,-2.688674941235223281e-03,-9.789897910498453371e+00
1.001282760839180108e+00,-2.944990272175899201e-03,-9.798530534027616312e+00
1.002715963061489468e+00,-3.117906093274524972e-03,-9.790260163411405259e+00
9.970379512656956100e-01,-3.930463588992373462e-03,-9.799030358776295913e+00
1.005923321272149229e+00,2.196634769844788438e-03,-9.789785854462227377e+00
9.941182460250707065e-01,7.009371526579499107e-03,-9.789601635567368731e+00
1.009287722795357389e+00,-1.748455586413669681e-03,-9.798735993206676653e+00
9.951647620165730013e-01,-8.747752073367840581e-03,-9.792223625493800654e+00
9.980005396522135808e-01,-4.460784639734468281e-03,-9.793259675745240145e+00
9.982085294142861720e-01,6.897976538821935961e-03,-9.785371108588021727e+00
1.000462602409864621e+00,4.539100593658435684e-03,-9.775833096056157245e+00
1.004636563745858968e+00,-1.602932019090758109e-03,-9.795877942389171977e+00
1.002195740012622016e+00,-1.313449220570433833e-03,-9.796149494134384739e+00
9.978446577844156673e-01,-1.272946930318332240e-02,-9.793942312714307263e+00
1.000199160553718603e+00,-5.693505319451134562e-03,-9.784478428037132858e+00
1.012351997052217456e+00,-2.034003400700697822e-03,-9.791326636976734221e+00
1.001029604833153286e+00,-3.504222475311179284e-03,-9.790586205115523910e+00
9.943350849051986184e-01,4.396025002137077427e-03,-9.792051357340669782e+00
9.928195048111856380e-01,-2.335767254147217472e-03,-9.796757265144224291e+00
9.992203113467038600e-01,-3.392156249929219585e-03,-9.791360816117752108e+00
1.000489034374363539e+00,-5.026914463986383117e-04,-9.790337424090244767e+00
9.908160613419545459e-01,-4.333607558001320234e-03,-9.789247541672207120e+00
9.944725810369272612e-01,-3.571801701273346133e-03,-9.796178892755893486e+00
1.005193809085783929e+00,5.045414079463230936e-03,-9.794109626492858212e+00
9.960525695933674095e-01,3.787282897400545689e-03,-9.801012877362547115e+00
1.002286890465561964e+00,-1.037494793281978564e-02,-9.785465244464496948e+00
1.010144399693487571e+00,5.071412303169721067e-03,-9.799581949719886609e+00
9.956222983061976395e-01,-2.541993570474192395e-03,-9.794449660213635056e+00
1.000428884341128866e+00,-7.241486397085744597e-03,-9.798684882838545107e+00
1.002007247287564962e+00,6.503809437541748428e-04,-9.783671676304498632e+00
9.986061224554150240e-01,-6.551920278438034921e-03,-9.782436061880350309e+00
9.971921787240015655e-01,3.419807956321278212e-03,-9.790285430105679865e+00
1.003272256814048191e+00,-8.097537173221808996e-05,-9.790114267870999143e+00
1.004462279118023549e+00,1.633820333490625543e-03,-9.790426173610969229e+00
9.968488435558817695e-01,1.910103417009207348e-04,-9.801810569077670010e+00
1.004393793789783107e+00,-3.964753789825686305e-03,-9.797906009374115044e+00
9.909668415079153636e-01,-2.079005780049607462e-03,-9.794975503572628028e+00
1.000334118148404672e+00,-4.369763903192648634e-04,-9.787547946885560179e+00
1.003410251455401081e+00,-3.818705543758984817e-03,-9.791397497772873493e+00
9.980786618390670162e-01,-4.622136812175482029e-03,-9.788197612912915346e+00
9.994515861014700020e-01,-7.308278990022273446e-04,-9.794190121654661851e+00
9.929066006374973608e-01,3.486434397855985197e-03,-9.797406976394331224e+00
1.010772020575778418e+00,-2.303564650913017629e-03,-9.791509948173906963e+00
9.980848292594479698e-01,4.983907347327375288e-03,-9.794249667948299987e+00
1.001464480925255307e+00,-7.170863100833061929e-03,-9.785128031278119920e+00
9.989694929502879184e-01,-9.171432226493978282e-03,-9.796436906844391501e+00
1.002541115222611801e+00,3.080956065637387165e-03,-9.788033383041042867e+00
9.979456403623979677e-01,4.984703542822257680e-03,-9.795014608997025363e+00
1.000976242965358587e+00,-2.621654810853859597e-04,-9.785317660659268668e+00
9.985075122017900151e-01,-1.946981399858737239e-03,-9.798012961952844435e+00
9.994380219861750403e-01,3.115420744408287437e-03,-9.788655076041052894e+00
9.974195498991419440e-01,7.107245147900004625e-03,-9.791548057097443802e+00
1.004829954056160712e+00,-3.860023352878006516e-03,-9.792056915010512341e+00
9.900881117813459253e-01,-8.466899413096938554e-03,-9.783515086830142593e+00
1.000652602201856922e+00,-2.090841920266822349e-03,-9.792280406398644388e+00
9.976559617427914750e-01,8.005534391864879001e-03,-9.799695343762524047e+00
1.006423679073831678e+00,4.705479616071353913e-03,-9.791311730338017938e+00
9.979681249243244068e-01,4.312457431483959248e-03,-9.790038187540137216e+00
9.965857534655281347e-01,-5.296392317255201087e-04,-9.789170896951063128e+00
1.000676168579929692e+00,-3.037750774211415983e-03,-9.795111571620234159e+00
1.001616221230382076e+00,4.931649277777907202e-03,-9.789186103408571427e+00
9.965738208885908112e-01,-2.978820850545235450e-03,-9.796198483401227008e+00
9.953573030993911885e-01,6.288095555535968629e-04,-9.794726227527249307e+00
1.005904821240739544e+00,3.701406267297949367e-03,-9.788395810224969296e+00
1.008552128436913442e+00,2.436303792443799722e-03,-9.793057214511899033e+00
1.004413573484261857e+00,-7.477651414685853454e-03,-9.800198009406960509e+00
9.992102579610598889e-01,1.178296821306815644e-02,-9.788610607694366195e+00
1.000175266264982987e+00,-5.986277265859005735e-03,-9.787817491955339122e+00
9.985691541968287899e-01,-5.264096608486412525e-04,-9.792398596777243114e+00
1.003806904123955235e+00,5.123976376140676036e-04,-9.797687656634462172e+00
1.002416413446598265e+00,1.088686220734715049e-02,-9.798446627496529615e+00
1.005884350506561553e+00,-3.535503350135027045e-03,-9.795619333342470370e+00
1.003095502954590712e+00,9.661387828879446429e-04,-9.790566832397770369e+00
1.004628729609664539e+00,-5.807858904661224349e-03,-9.788389086532301775e+00
9.961143075651578416e-01,-6.340386532936760633e-03,-9.790957270410416413e+00
1.001039008796161367e+00,-1.040256424296582757e-02,-9.798905443758998857e+00
1.003745731061576052e+00,-5.800528962993246451e-04,-9.793344216089773013e+00
1.001730135494048657e+00,2.322961008404315127e-03,-9.796274049715844257e+00
9.993445448501286910e-01,4.003229533179963363e-03,-9.790861333574142122e+00
1.003405042583808804e+00,3.293359121099861085e-03,-9.795956367459135450e+00
9.978337505583052547e-01,6.025084095849148058e-03,-9.790494009983003565e+00
9.996394093832697836e-01,-6.222830213829381660e-03,-9.790643586056054559e+00
1.006393201414107486e+00,2.471828859027319571e-04,-9.786126640855371761e+00
9.996148878976378604e-01,-4.151947067006739149e-03,-9.791173511761025239e+00
9.893529101304987527e-01,-8.413551940216857999e-05,-9.798966002625205007e+00
1.008112239962326573e+00,-6.930967295450409481e-03,-9.789289461153080296e+00
9.980728015754755100e-01,1.561968727032309089e-03,-9.795773726714124052e+00
1.000520767693870994e+00,2.231824884039803475e-03,-9.789994361118365518e+00
9.982134153600140669e-01,-3.758715039973529841e-03,-9.798998577678352362e+00
1.003785283025840913e+00,2.372995079109530264e-03,-9.784882260215139738e+00
1.000991358928561947e+00,1.071586283292493436e-03,-9.792810818980157705e+00
9.997559368179211869e-01,9.455083428181964254e-04,-9.783148610827764102e+00
1.001349524327379337e+00,-7.718751334381652833e-03,-9.794534584356254570e+00
9.938394444095272062e-01,-6.689475647600615776e-03,-9.789112503117442188e+00
9.975647682895327772e-01,2.714471028205881625e-03,-9.793620897429422101e+00
1.006675920106821609e+00,5.809516289074973840e-04,-9.793271993621180727e+00
9.956488381321206838e-01,-1.609980133145823278e-02,-9.793662955756666122e+00
1.009060374827855711e+00,-2.446497358961003451e-04,-9.780615994057523466e+00
9.981014281838442859e-01,-7.619756847597696121e-03,-9.794510601016865436e+00
1.005403435777162624e+00,-2.378339262520511987e-03,-9.806571339749822869e+00
9.930671796522322348e-01,9.794944189906817575e-03,-9.796354775615341737e+00
9.922371371009278684e-01,5.345278776357122001e-03,-9.798527965420548824e+00
9.942324240288247239e-01,6.954635815015463565e-04,-9.794270644647749435e+00
1.015096062796542187e+00,-2.079292935199255656e-03,-9.791758981873268652e+00
9.968443949970753337e-01,2.616824704025152212e-03,-9.795012728519063572e+00
1.000816384459727315e+00,-9.366635695581474255e-03,-9.791821847769316634e+00
1.000623985697811191e+00,5.128799495263723120e-03,-9.789089277421290092e+00
9.966844697260480723e-01,-1.260588590319069655e-03,-9.789711450756444222e+00
9.969186411573314199e-01,-1.086171864773092556e-02,-9.795276377890704822e+00
1.003336550364118285e+00,8.651703922922509421e-03,-9.794297123941086980e+00
9.998670236392301902e-01,6.419781835221637784e-03,-9.799508716649672380e+00
9.980817369966753505e-01,2.449543581283236595e-03,-9.791429434957482414e+00
1.000852046233481563e+00,-2.928777105259303473e-03,-9.786906841653774336e+00
9.864820850620559245e-01,-4.373847716813096011e-03,-9.791047087316576025e+00
1.006839808885706011e+00,-3.245440884951592952e-03,-9.793021779988936970e+00
9.979877009100843743e-01,-2.565838868009756059e-03,-9.792020098835660491e+00
9.957853895385265774e-01,3.666681270154069881e-03,-9.790305478278400031e+00
9.907192161980047374e-01,-2.693535173888468668e-03,-9.795828683312906904e+00
9.996961085831783667e-01,1.042529448978627002e-03,-9.789382166050671685e+00
9.988851384350725393e-01,2.309288064559826287e-03,-9.800189512678837644e+00
1.008786271975343762e+00,-7.578271343122251237e-03,-9.792561969956627976e+00
1.003415988485848009e+00,1.710097795711111417e-03,-9.797011697786690121e+00
9.953286452000817963e-01,8.010866902132800921e-03,-9.798066841811197136e+00
9.900967499653272608e-01,-1.193591185171978802e-04,-9.798973616483602100e+00
9.961422807566007176e-01,4.253341056074892018e-03,-9.785565298107822940e+00
1.007508434746138937e+00,1.104281691625918355e-02,-9.793081968407292948e+00
9.904964819675793342e-01,4.670372133150027354e-03,-9.796599298685910284e+00
1.008688602622861419e+00,-4.744384421085081661e-03,-9.792677690476859098e+00
1.001535499234760263e+00,1.369883142395239822e-03,-9.795321328416736861e+00
1.014889526539351161e+00,7.586432176953382227e-03,-9.798545992847643049e+00
9.964939247002378986e-01,-1.577280967846638599e-02,-9.794607001513906397e+00
1.008005315289182136e+00,7.645033931457584971e-04,-9.785551221578005610e+00
9.949676377886822465e-01,5.690788340160876256e-04,-9.792022998619303920e+00
1.001907499867583207e+00,-2.296848365081740218e-03,-9.792711812439813812e+00
1.003897117080340351e+00,3.870883739060641555e-03,-9.790542797000531650e+00
1.001896204150639402e+00,1.156820031344256428e-03,-9.798173318326814041e+00
9.952979815702093225e-01,3.785919630639941746e-03,-9.791242471071919695e+00
9.988027173594474784e-01,8.485830323051068297e-03,-9.798590366089849013e+00
1.001087813329905707e+00,-1.204556544075143822e-02,-9.788928718309387378e+00
9.963941601654974223e-01,-2.539078569243854479e-03,-9.796868626824632997e+00
1.000601368617327847e+00,-6.662494123510093354e-03,-9.796600948268805453e+00
9.997091273842182435e-01,3.045527482882687308e-04,-9.795951039417772677e+00
1.000438713928782697e+00,-2.972444149069130605e-03,-9.792712784053417607e+00
1.001537984511389867e+00,5.703131180589030014e-03,-9.790522536179077306e+00
1.003393088408041756e+00,-2.441199435608004328e-03,-9.783588429056914393e+00
9.907110198852389082e-01,-1.161097915191732811e-02,-9.787512543552150390e+00
9.965739692089317092e-01,4.221800030023175297e-03,-9.793504193095149191e+00
9.959150488853268923e-01,5.484816256898594408e-03,-9.791503459971723444e+00
9.994717779762538612e-01,5.548833280524092214e-03,-9.794448774484408204e+00
9.958212990312031998e-01,2.787734989746973226e-03,-9.788461614551918544e+00
1.003421805614059137e+00,-2.640739960605338350e-03,-9.788521869556529253e+00
9.924240115478620838e-01,-3.665407343089605204e-03,-9.794167379373718063e+00
9.964789091275431110e-01,-1.022187802080373395e-02,-9.808189232544060943e+00
1.001155994717517039e+00,-4.097399710816961547e-03,-9.798136338438906634e+00
9.990331331729984665e-01,3.130230778196791200e-03,-9.783904539554745483e+00
1.004040905833873953e+00,2.787825770498704621e-03,-9.791979222802780214e+00
1.003879423203803523e+00,3.893384053025234545e-03,-9.803157805695599691e+00
1.003646237204686154e+00,3.638428756508139961e-03,-9.795082026581241053e+00
9.956730262082414962e-01,-2.460220785561571463e-03,-9.796030729812947868e+00
9.986767956108935085e-01,-7.915872382042860034e-03,-9.788912148926122825e+00
1.000684437361127888e+00,-1.648306605970718472e-03,-9.801164855311197854e+00
1.002355441235369904e+00,-4.038737248439838723e-03,-9.795896399429222967e+00
9.980358873961853172e-01,5.240893082457176444e-03,-9.792205561587485008e+00
1.015910698077030494e+00,-7.704564460233631271e-03,-9.794094079146706378e+00
9.946877358540686664e-01,-3.393714811549018891e-03,-9.801380034853924172e+00
1.003581497237709286e+00,1.244906023931163612e-02,-9.795341526618576822e+00
1.001957845378081524e+00,9.384090776309675710e-03,-9.794370410508010494e+00
9.919382851386588928e-01,-6.983240409065350970e-03,-9.793105933998718982e+00
1.003281075320764826e+00,2.400548436734328134e-03,-9.792290817389593727e+00
1.008596785606762136e+00,3.825498714414126908e-03,-9.790567145031015883e+00
1.005563218827822070e+00,7.557931778433131693e-03,-9.794063270477716188e+00
9.959617208789389720e-01,1.061347163345324708e-03,-9.796685519839259726e+00
9.962297946907852086e-01,-5.625567448828069916e-03,-9.784181156120757450e+00
1.002498846350712514e+00,9.290078333994833751e-03,-9.803983102922767756e+00
9.913938961199814104e-01,2.404874848546278369e-03,-9.800419735278197209e+00
1.007110651598274620e+00,4.615199683501448533e-03,-9.792310115845555885e+00
9.892261446138403969e-01,-4.742689573430024404e-03,-9.788672866893081803e+00
1.000818841242935742e+00,6.751827005289965690e-03,-9.791709841949865378e+00
1.000293574123706897e+00,-2.506591041275307678e-03,-9.792951236472630328e+00
9.918655059141584518e-01,4.282249812645732082e-03,-9.792612916816167967e+00
9.978009682142328085e-01,-1.291772730247010489e-03,-9.801305615952207617e+00
1.002335966282378310e+00,2.538852602609062230e-04,-9.792437416562659536e+00
1.000117472890546866e+00,-7.151871734951234820e-04,-9.798834790817835483e+00
1.004046237475549663e+00,-6.114800572399412687e-04,-9.789047360378196672e+00
9.978796440852614191e-01,2.997839754567724682e-03,-9.797102453259666888e+00
9.959855917002677916e-01,2.448537797904857399e-03,-9.795632896673847512e+00
1.004461398002514105e+00,1.045713750141798919e-03,-9.798781663604005487e+00
9.990819040291489816e-01,-1.498894074736186258e-02,-9.796734253205626075e+00
1.003266656205762830e+00,-4.129928186973380946e-03,-9.799991328343072183e+00
1.002115826105384189e+00,-5.036125702121030390e-03,-9.796488125360889754e+00
1.003864160242316617e+00,-3.158904063598742297e-03,-9.795304843378948689e+00
1.001265924952731146e+00,3.212475684612122210e-04,-9.786608867578044268e+00
1.007422514969887217e+00,-8.013096821929849853e-04,-9.782817348810095126e+00
9.951736203258856328e-01,-5.532299959018128870e-03,-9.791988483930467169e+00
9.999539149087072198e-01,3.448973842845227023e-04,-9.793518744487000660e+00
1.011798926530754539e+00,-8.705237487888702747e-03,-9.800015662789252957e+00
9.939646794282206432e-01,-8.661647660122933495e-03,-9.793167743104181255e+00
9.954845143128694396e-01,-8.684311255717142020e-03,-9.793762079447803970e+00
9.946983144612756567e-01,1.450593589619074723e-03,-9.796722681377630693e+00
1.005210101014937463e+00,2.947495994726918520e-03,-9.784155267300619130e+00
1.005461133287015141e+00,4.535832357840453508e-03,-9.790875111296598376e+00
9.935720580057673113e-01,4.033840053666380709e-03,-9.791025863551922725e+00
9.975227143400794416e-01,-5.468578175287631613e-03,-9.800292006043079596e+00
9.944909663183204573e-01,2.082851981751336189e-03,-9.790644826627184827e+00
1.005562899306513325e+00,-6.253002333865363867e-03,-9.799499963390092105e+00
9.929533371656370511e-01,6.128042043410374465e-03,-9.791355631542081994e+00
9.955847447340560041e-01,5.345656867182795469e-04,-9.791194799959846762e+00
9.972069723680340170e-01,2.815542182140822261e-03,-9.796235193794316842e+00
1.000240171104370468e+00,2.641796630248570421e-03,-9.793811422291932800e+00
1.002902827412435416e+00,-9.764530568967713653e-03,-9.787961076114246595e+00
1.004756382717217900e+00,-4.280319543353694814e-03,-9.784774195162400545e+00
1.002596774965734960e+00,5.315395533992712564e-03,-9.794409521147176889e+00
9.980629885031048198e-01,-3.308913579875011422e-03,-9.785333325133523275e+00
9.977980870107274747e-01,3.406121153957636372e-03,-9.791058428526627111e+00
1.002457477929390661e+00,-1.729086760494670505e-04,-9.795557838013698060e+00
1.001892816797735009e+00,-6.188575333117907369e-03,-9.790702067016892940e+00
9.959799259410008210e-01,6.888503872633155653e-03,-9.796863277755115007e+00
1.000249575164765758e+00,-2.071510411221718501e-03,-9.797233586979217534e+00
9.945597922444405770e-01,8.528957848909408251e-03,-9.788849424780204700e+00
9.917304684783633251e-01,-6.463824290291814850e-03,-9.791387950335506574e+00
1.012345390490653196e+00,1.012259461184512183e-03,-9.792618927151835351e+00
9.965693101938554177e-01,-6.034507674063267595e-03,-9.796041854788978043e+00
1.010041552214264060e+00,8.318091370907334040e-03,-9.789210271232740013e+00
9.951015528252530329e-01,-2.397310051078880427e-03,-9.805115253880359205e+00
1.002173728058602942e+00,-6.283346627972346632e-04,-9.800187855198565501e+00
1.001711452897348087e+00,4.026703509689448708e-04,-9.793866253778370279e+00
1.004177633895255939e+00,4.655589996937825603e-03,-9.786290282960312226e+00
1.007310335443009297e+00,1.248829311376920687e-03,-9.797482754081013212e+00
9.949844646424510497e-01,1.690976893698905963e-04,-9.788913512000645412e+00
9.964308059954000152e-01,-2.583736226796444144e-03,-9.788157384725829857e+00
9.981924011102241145e-01,-5.334254183897007943e-03,-9.797757079436969718e+00
1.000985762313596261e+00,-3.655446343137553223e-03,-9.796844967170535767e+00
1.005912374864750936e+00,1.047840134304585565e-02,-9.791221209891105559e+00
9.996111953902838687e-01,-1.224005163979909223e-02,-9.783103338257053139e+00
1.004267178737275001e+00,2.844891257085169125e-03,-9.792213346427349308e+00
9.933168161485285141e-01,-3.707208077399472279e-03,-9.815690581510651214e+00
1.000752869263424660e+00,9.677245804684327102e-03,-9.791692576546534355e+00
9.938246092317672975e-01,-4.012858048996583923e-03,-9.795053463424698847e+00
1.004370917660458273e+00,1.960508032024211103e-03,-9.799970038005934470e+00
9.950580127377635087e-01,-7.684025721831119760e-03,-9.792234800962637209e+00
1.001086448791798533e+00,-3.426913352722935242e-03,-9.794764040545626216e+00
1.006115603761807087e+00,9.658709128381686923e-03,-9.794790933276320999e+00
9.908844675931663959e-01,-5.324767914458827453e-03,-9.787152075100729931e+00
1.000105139655574460e+00,-1.066363346981011925e-03,-9.799178724758281334e+00
9.990711015563088493e-01,1.385204416478985753e-03,-9.797062501783527111e+00
9.985654314266493303e-01,-8.191968081510792032e-03,-9.789373938065782710e+00
1.005878836990960812e+00,5.159342528163182381e-03,-9.806044407312162647e+00
1.002574928524669895e+00,4.453349297455817465e-03,-9.791297524441612055e+00
9.959778026265271311e-01,-9.165517319274502431e-03,-9.785050705418829153e+00
1.003155505077832466e+00,3.572308971839968043e-03,-9.794052470672721000e+00
1.001188772788232484e+00,6.931783662562504382e-03,-9.790008117252259723e+00
1.002372685933749175e+00,-1.665064407282923487e-03,-9.796785808037210330e+00
9.982763190523148422e-01,3.349870565491209432e-03,-9.798102112361123162e+00
1.001929027467482580e+00,-6.447892903011624450e-04,-9.798408462278631603e+00
9.995759996682180848e-01,2.026125516131000500e-03,-9.791657201659567988e+00
1.007561249869614040e+00,4.063256911529196207e-03,-9.786280373693248436e+00
9.942138743515421817e-01,2.991723593445841031e-03,-9.797924259351081133e+00
1.003349922018992313e+00,-2.081239120468328320e-04,-9.791932417106778530e+00
1.002112164938761651e+00,-9.527074027324945000e-04,-9.792058820739994118e+00
1.001379048727674359e+00,8.535780240743506483e-03,-9.793999445913426527e+00
1.003742724122251406e+00,3.249993280339314762e-03,-9.802924124236234604e+00
1.001382409716636168e+00,-1.191508474484866955e-03,-9.790997625404306959e+00
9.955512776644921402e-01,2.797651613952997773e-03,-9.794249765635212768e+00
1.000461204881819999e+00,-4.582965658934862012e-03,-9.789552628759812691e+00
1.002702104212092715e+00,-1.109136150840983950e-03,-9.796744754001160516e+00
1.002981077677864707e+00,-4.754601849101669085e-04,-9.800322202344018407e+00
1.000019671329845705e+00,-8.623037035446123530e-03,-9.788988118336620303e+00
9.945428636052149329e-01,-3.664184445407355981e-03,-9.798007617663097690e+00
9.964982981545277285e-01,-1.068225903357946163e-02,-9.794666164864924696e+00
9.969805975774189699e-01,-1.176186724498226891e-03,-9.790556972313744666e+00
1.001238589441223681e+00,9.737637655768831974e-03,-9.794954988737702095e+00
1.009873813318580504e+00,-5.038215461919673052e-03,-9.793943748575273389e+00
9.961265534864165438e-01,-3.177679495444372254e-03,-9.789661568281742277e+00
1.010630837207890931e+00,2.212199085031964305e-03,-9.796327692909725826e+00
9.944622700992408193e-01,-7.559534561660029815e-03,-9.793856163974288265e+00
1.002721731510238801e+00,-2.341070841170661988e-03,-9.798094050510947284e+00
1.003703707072218565e+00,-1.819849278947086252e-03,-9.795784802893232168e+00
1.006015849039675336e+00,-1.122456281271944599e-02,-9.792751329727506615e+00
1.004332007329899357e+00,-3.254030317869804900e-03,-9.800504493243641591e+00
1.001251559507889466e+00,-1.093132327226311803e-02,-9.797020871064004766e+00
9.956530916429082723e-01,4.405499971099774599e-03,-9.789325794068986397e+00
9.990861785692199959e-01,6.579653879386093002e-03,-9.788729042045318351e+00
1.000266668955429372e+00,9.753627317090156606e-04,-9.793268463717440753e+00
9.969551102753400063e-01,9.464299723119875846e-04,-9.791376556028764000e+00
9.977494954665824256e-01,1.543174142700519391e-03,-9.801704544636272942e+00
9.893969992607115627e-01,7.810885106753837591e-03,-9.799800079689031662e+00
1.001223592417161079e+00,3.811548412279639787e-03,-9.799616460730154799e+00
1.005315206984092491e+00,-4.887498067039768371e-03,-9.798821118878883851e+00
9.980709452814199301e-01,7.082025667914343230e-04,-9.794896800181632557e+00
9.979564297610541423e-01,4.887004412766921685e-04,-9.784560345273387583e+00
9.993355669046664058e-01,8.684659737491277204e-03,-9.793150523300552024e+00
9.962793123830079312e-01,-5.852295550152211527e-03,-9.798005360340891201e+00
1.000384455378029003e+00,1.721611012323279611e-04,-9.792040483580603194e+00
1.002838261031937961e+00,-1.523821142870537956e-03,-9.797613527983907389e+00
1.005923283860964634e+00,-2.166794744869948372e-03,-9.797413330896763028e+00
1.007275542793091505e+00,7.132627736128648380e-04,-9.790878994635759724e+00
9.975171022441466917e-01,-1.015021747596234203e-02,-9.805432983996395180e+00
9.997860459157958957e-01,2.353380210056029397e-03,-9.799087970085972543e+00
9.991620968391308200e-01,-1.109178447982047191e-02,-9.800836309632352084e+00
1.006638024556525179e+00,-5.533730008056109324e-03,-9.787450359848586245e+00
9.994631913332695516e-01,-1.288830363600210627e-03,-9.801833429671567899e+00
1.005224835833995023e+00,-3.775386764190460844e-03,-9.796120395831545480e+00
9.981973432526691781e-01,1.162090742472150946e-02,-9.781848767290421520e+00
1.002388911399202387e+00,4.691924267704139333e-03,-9.802728927463014941e+00
9.966732654492946875e-01,3.512220497654686482e-03,-9.788529622828862742e+00
9.909798306509804977e-01,-8.867745306646725818e-04,-9.804966048919551369e+00
1.005124744287467120e+00,-1.265417304908024974e-02,-9.797028291931196620e+00
9.994457034268241502e-01,3.874666399962006140e-04,-9.794676259176325672e+00
9.972131899395270116e-01,-1.784719131071629611e-03,-9.794436402339982806e+00
9.995059579660342530e-01,1.938506695278221928e-03,-9.786640870782797208e+00
1.002226709145005001e+00,-7.401440589909606422e-04,-9.792970144567533453e+00
1.009948866717987004e+00,-1.229625414932082259e-02,-9.802813032001076010e+00
1.005173200611080064e+00,2.272431808910674441e-04,-9.790044030565599797e+00
1.002217082387087288e+00,1.696695927813651229e-04,-9.788476465467681464e+00
1.003323267739967273e+00,-3.139861788372841703e-03,-9.790726882307600576e+00
1.001356877158328329e+00,8.474510518579062707e-03,-9.808380317370561485e+00
1.002412519101459232e+00,-1.698755582531005347e-04,-9.794502879078907043e+00
1.002008375289594078e+00,-1.027008323812288876e-03,-9.802530204006949077e+00
1.003496077034860434e+00,8.752804670680373531e-03,-9.789992917381821869e+00
1.002916652384378882e+00,1.883386753357234366e-03,-9.786957511603139537e+00
1.004218998604741619e+00,-1.580499476349775346e-03,-9.798556230375671916e+00
9.949024026813049204e-01,1.443683839182658551e-04,-9.796147114987505233e+00
1.001249563554976518e+00,-2.076330274796583421e-03,-9.791526591174768868e+00
9.986473267410953536e-01,-2.571528326544246078e-03,-9.796109865124066118e+00
9.999056460567752325e-01,-2.996466384385520088e-04,-9.792406717624901447e+00
9.939249498230566804e-01,-1.018589903581967144e-03,-9.792190494865938177e+00
1.006599096219702671e+00,3.812284415818480762e-04,-9.796247632735614275e+00
9.935707942419711447e-01,-5.975697546550375137e-04,-9.789967028630444545e+00
9.992257591837448993e-01,1.875223294592040513e-03,-9.794501204334249422e+00
1.001492243514367164e+00,4.611402304330156792e-04,-9.793883613341565209e+00
9.962125727137057796e-01,2.653383474232895185e-03,-9.795948004868961334e+00
9.952053254599653176e-01,1.279720562563501241e-03,-9.781997764765463899e+00
9.900045935886568893e-01,2.402552428388892575e-03,-9.799594114233700637e+00
1.004507604413015454e+00,3.188639475087459447e-03,-9.794334525974990768e+00
9.977493005931973302e-01,5.079595843808365312e-03,-9.797312122080333197e+00
9.947191135757582625e-01,-3.016156146525740631e-03,-9.795491109414312447e+00
9.969042557992987552e-01,6.156559741894123208e-03,-9.796030947475895090e+00
1.007372243077247820e+00,-7.454140621648543130e-03,-9.791979310791408153e+00
9.971866865170561089e-01,4.057984247281379124e-03,-9.794069827957743613e+00
9.973764306301869942e-01,-5.100162992880429881e-04,-9.789473826915662258e+00
1.000157998391240310e+00,-4.156091571670310694e-03,-9.799792814814063391e+00
9.969760468892684413e-01,2.304881489879158016e-03,-9.794504529087930678e+00
9.965026717253019362e-01,6.972402582711366079e-03,-9.802499785357525752e+00
9.976456545297784917e-01,-9.456247932758060984e-03,-9.788678947827605725e+00
1.001391337511217339e+00,-2.527971090258847656e-03,-9.786495349169035407e+00
1.008364364624758647e+00,-1.541597968980258811e-02,-9.803641349708575703e+00
1.001109420430758457e+00,9.581809230039036590e-04,-9.794452039757667094e+00
1.000325029852816350e+00,-1.191917717813619458e-02,-9.792531834702947080e+00
1.001186642554136697e+00,-1.868458244857727226e-04,-9.794991037119782362e+00
9.917618622174052545e-01,2.289384312237888533e-03,-9.798812687642726615e+00
9.961879691940032089e-01,-6.669771406547708378e-03,-9.796356780546773280e+00
1.001120316414229494e+00,-1.668670469552178525e-03,-9.798202412634518410e+00
1.001458966920462101e+00,-4.213336699645358827e-03,-9.796829512050381439e+00
9.905189863188205157e-01,-3.245318866210512680e-03,-9.790440212095107952e+00
1.001780513283254681e+00,-5.315223353785216397e-03,-9.793976982731045666e+00
9.979515357587472879e-01,6.800271552855446412e-03,-9.796161077175311149e+00
9.898653635264448303e-01,-7.401354652150125314e-03,-9.791006347912974306e+00
1.000321739964465717e+00,-3.417045701867960084e-03,-9.797794686906836858e+00
9.955111933190676776e-01,-1.210481785419848747e-03,-9.798788894093467761e+00
1.008273946393622333e+00,-7.161492142922424968e-04,-9.795198024721301522e+00
9.986175127046648115e-01,-2.387921745774936912e-03,-9.799836485951592735e+00
9.935917754568939220e-01,-3.887849242750565822e-03,-9.788431060185029509e+00
9.946168886756004968e-01,-5.845229626420891250e-03,-9.792245470498004423e+00
1.000885173229576930e+00,5.275257387217849141e-03,-9.796375705807305323e+00
1.005357689595415938e+00,6.902418399965570871e-04,-9.796001751919746425e+00
9.946516566796350656e-01,-2.098006278010729371e-03,-9.793151121978851847e+00
1.001385928863574692e+00,2.322283563715840139e-03,-9.788319935345130673e+00
9.929446415349854060e-01,1.391210753702350027e-03,-9.794418304967603461e+00
9.973128918683948907e-01,4.811550348830638145e-05,-9.785025383563468182e+00
1.000210195714102523e+00,1.009067760672270175e-03,-9.790220715887507197e+00
9.962955812809388689e-01,4.242676022477765221e-03,-9.799711119047229246e+00
9.991606512275886809e-01,8.207416047711245041e-03,-9.793128644992755483e+00
9.965108782038848423e-01,7.027461469726692042e-03,-9.793344195897438098e+00
1.001238373171591034e+00,-2.789502960573240434e-03,-9.786069298458446752e+00
1.007217006165327611e+00,7.205488757535768833e-03,-9.797695933858840078e+00
1.003231415159884454e+00,-4.413603068133467935e-03,-9.792367896309563946e+00
9.963323110767695612e-01,-3.218529282678795657e-03,-9.798571927808648496e+00
1.009555616404662848e+00,1.051845878015941239e-02,-9.787416170223854905e+00
9.904587553439907488e-01,-2.069083790348990020e-03,-9.790107040457028731e+00
1.002024241769873703e+00,-1.417838680857458561e-03,-9.798742287457503863e+00
9.973767755483321507e-01,-8.858070100314162365e-03,-9.791389686130246517e+00
1.003509660204828569e+00,-5.142143934190837595e-03,-9.794961246683598688e+00
1.002319400341616928e+00,4.692973904284367462e-03,-9.786261948427041446e+00
1.006131526536707899e+00,8.307526259816814737e-03,-9.799356598791797879e+00
9.908771339285633584e-01,-3.946748415244818488e-03,-9.797398175654892682e+00
9.907368591523665335e-01,-2.649395075608826518e-04,-9.799352703336939641e+00
9.974159478397578438e-01,1.045350310500656448e-03,-9.786137058105348174e+00
9.963830727893351336e-01,2.828092828326738296e-03,-9.797634269647989669e+00
9.946999084530520063e-01,-1.323286770706698368e-02,-9.797946158195221855e+00
1.001611101829089634e+00,4.134925629355732692e-03,-9.790946020609279543e+00
9.923718944496456862e-01,8.040322721740598630e-04,-9.794867837656610732e+00
1.004110611293197008e+00,-1.262966957332360002e-03,-9.796755590308075412e+00
1.000017826974502144e+00,-5.604980385589776112e-03,-9.794088363409050757e+00
1.000968377000768239e+00,3.368642088385764236e-03,-9.795274064127326596e+00
1.002964465603385591e+00,-3.275948268256726609e-03,-9.791105685946440929e+00
9.913022527124982775e-01,7.004174503004040493e-03,-9.790429121386528877e+00
9.980094144577966730e-01,-1.539118318495566852e-03,-9.796638179090052745e+00
1.002043126583488819e+00,-6.235500662998900295e-03,-9.783555476917664251e+00
9.982143457406384979e-01,-1.243770766790145647e-03,-9.796733396418369821e+00
1.001039039976383993e+00,2.653509024877631715e-03,-9.789960972382532489e+00
1.002215427293566163e+00,4.348095531076775176e-03,-9.801251002112488564e+00
9.995514545643907622e-01,-5.252146648239912341e-03,-9.795302428654578009e+00
1.004425817480527838e+00,7.147215050902243957e-04,-9.795025397968267100e+00
9.974943165373812981e-01,-1.849951657028933933e-03,-9.793046292483058579e+00
9.988308071936622401e-01,3.567741186040029443e-04,-9.806163756731404391e+00
9.937353274339167930e-01,4.114236459110785912e-04,-9.799369494618371590e+00
9.978484169105751311e-01,7.639420031948193288e-03,-9.795026397080089708e+00
1.007058469234258347e+00,-2.959387127555157364e-03,-9.795930229873343720e+00
9.943188222048657821e-01,2.213380360395698129e-03,-9.793962390591266498e+00
9.973929118889947043e-01,-8.303653873087981502e-03,-9.789055703432273603e+00
9.988589361150620460e-01,-3.627897425821507982e-03,-9.791389391930445996e+00
1.004668973786392971e+00,-4.130836473917387681e-03,-9.792016903195037258e+00
9.927905693065689485e-01,-1.553666031133194101e-03,-9.795806726554760147e+00
1.001066262813880003e+00,5.989996267162363448e-03,-9.796917659216870078e+00
1.004113793297650936e+00,-9.019222076031808370e-04,-9.791589068882659674e+00
9.973878138062191034e-01,-8.963835934514052806e-03,-9.786516662562743107e+00
9.952182529891696605e-01,5.449454297027716502e-04,-9.790341228106742122e+00
1.005655085852378283e+00,3.675210327372751239e-03,-9.789962688137965330e+00
1.007048474515941150e+00,4.900511933454966725e-03,-9.795414971402264470e+00
9.909729631239528880e-01,-5.268601806187658658e-03,-9.790501705605633376e+00
1.003894312760819751e+00,-6.515833865280815269e-03,-9.784878796881177010e+00
1.003449045496012326e+00,-4.533789530917957042e-03,-9.800976719775679413e+00
1.007811581332502149e+00,3.708610926359179674e-03,-9.790794565495748003e+00
1.001697779250459774e+00,5.842686241309224052e-03,-9.792127473587074249e+00
9.977932158026663334e-01,8.993596403162031072e-03,-9.802502989387805954e+00
1.007785768700394158e+00,-1.827857497000439507e-03,-9.791509064058805833e+00
1.007280402515915663e+00,1.333030892488032068e-03,-9.792849939423135197e+00
1.001198287311375168e+00,2.563235329771779841e-03,-9.788779670720767712e+00
1.009402767003577672e+00,-4.408186851662414772e-03,-9.787197053023751536e+00
9.957678885282000847e-01,1.886741284418141538e-04,-9.795647833657085357e+00
9.986632908315101753e-01,-1.699647607742181977e-03,-9.796825751044210051e+00
1.003654112312237112e+00,-2.981618061091418064e-03,-9.800549634724193382e+00
9.965323133987368243e-01,-4.987045027999873099e-03,-9.793648328033718542e+00
9.896267521579695803e-01,3.266059971733520232e-05,-9.786416034490670768e+00
1.001249884690367908e+00,1.081939806797592614e-02,-9.788575028504304498e+00
1.000945379199387864e+00,-1.005391419022963907e-03,-9.789620699760222422e+00
1.000377997183602652e+00,-1.308612496511597474e-03,-9.795866252732922774e+00
1.001004880992608870e+00,-1.057804849513364464e-04,-9.795316827160650774e+00
1.000434599704398408e+00,7.895451444834878946e-04,-9.798819407383415836e+00
9.936162123947016589e-01,9.966325875936783013e-03,-9.792453426612455658e+00
9.952145466421139508e-01,-3.760509777394876758e-03,-9.793988496381311748e+00
9.979117012454785662e-01,-2.815622557985932571e-04,-9.795534827572975445e+00
9.991102452184618121e-01,3.303890890858400802e-03,-9.788699672634594506e+00
9.991885273562912673e-01,8.933697936453767821e-03,-9.792526367159384293e+00
9.932755585945316490e-01,1.042058788783958075e-03,-9.797451897103998775e+00
1.004390228110623395e+00,5.682188352751879265e-03,-9.789650965359166790e+00
1.000870757766162855e+00,-6.217959011252894783e-03,-9.787298268380713040e+00
9.917352102493715016e-01,2.513159638399964889e-03,-9.797151994509761153e+00
9.910391845851059811e-01,9.057774165152540288e-03,-9.780519724094007827e+00
9.961327903559037411e-01,3.815526716779223289e-04,-9.805457324959553134e+00
1.000963247801981648e+00,1.068614370577642553e-02,-9.795625653576045977e+00
1.002722278007892598e+00,-1.520993769441695035e-03,-9.784993484688712329e+00
1.009143545080096960e+00,7.303175078949356892e-03,-9.781167008309509470e+00
9.893644024399825820e-01,-4.234154193494190678e-03,-9.797586909031510416e+00
9.997409779628191329e-01,-1.836447268714848282e-03,-9.798616258021068504e+00
1.001232495909649467e+00,-6.607838567667113612e-04,-9.801348013836792106e+00
9.996233929827084141e-01,-1.009665953627294013e-02,-9.784923211222784190e+00
9.997704916473780790e-01,2.908443621064976062e-03,-9.787563549802500873e+00
1.005953134622779022e+00,-2.215425742943909985e-03,-9.792985537237999694e+00
9.960497033764831309e-01,-1.200410417265376176e-03,-9.797195081679223705e+00
9.949330109752440032e-01,-1.369379529948014070e-04,-9.795038609428177168e+00
1.002289154405966887e+00,9.267220816474585482e-03,-9.791569995303534668e+00
1.008435148679150517e+00,-1.853557245469212482e-03,-9.800160154883871044e+00
1.009113896504010954e+00,-1.849834258029585399e-03,-9.792889094959999596e+00
9.875802092295877799e-01,-8.022579652754845136e-03,-9.793112384988585717e+00
1.003318892603238810e+00,5.846349879484197959e-03,-9.783832348749852414e+00
1.001038821573377424e+00,-1.697949294917661936e-03,-9.799533948250845228e+00
1.007766831024100362e+00,-2.480339697805196680e-03,-9.794321527200279931e+00
9.975980732454092781e-01,1.534457249832242272e-03,-9.794481984434494137e+00
9.943948854211329680e-01,3.019575156780373876e-03,-9.794510986114637774e+00
9.994729538031854599e-01,4.408009995927057896e-03,-9.802582341552382061e+00
9.942225601065479701e-01,9.675601429150361768e-03,-9.798889766869187667e+00
9.886485975803346316e-01,1.501369353037680697e-04,-9.793856513313693668e+00
1.004453424624345503e+00,-5.163874165946189670e-03,-9.783747137000062821e+00
1.000634894599793823e+00,6.618693967032236551e-03,-9.787366921250223228e+00
1.002520084715333937e+00,5.150746766761101110e-03,-9.789666518867553791e+00
9.986464746787566682e-01,1.059210468087978287e-02,-9.789674346484778411e+00
1.005928229933478191e+00,3.086171484833272020e-03,-9.796620910443147423e+00
9.993905968288893105e-01,1.021359638637858724e-02,-9.793168313270919967e+00
9.978548244071775430e-01,-4.671059820873636292e-04,-9.790144104136189185e+00
1.004404717175570561e+00,-2.104396490823755034e-03,-9.801699367516613748e+00
9.952403941131893195e-01,4.895711241995597679e-03,-9.798957369757234304e+00
1.005935351985328685e+00,1.198965069817841582e-03,-9.790702406843081462e+00
9.996710866616750346e-01,2.058008233416036125e-03,-9.788165648473089675e+00
1.005683985088098753e+00,-1.169995430666898473e-03,-9.800670603545890813e+00
9.981988037071586328e-01,-2.622815409020666424e-03,-9.798170657667956363e+00
9.994703596815305291e-01,2.194794827179529211e-03,-9.796232892853801388e+00
1.005242483832663014e+00,-5.385760752630514188e-03,-9.790380822750064382e+00
9.880699864657089826e-01,-5.529274191725037577e-03,-9.789024273639512330e+00
9.882553627224913706e-01,9.314814535229028886e-03,-9.796452079106460431e+00
9.980742444308026151e-01,4.898028213081988269e-03,-9.796462506980565976e+00
1.000899614217297673e+00,-6.715127721647747190e-03,-9.796394654391733070e+00
1.003850640696021479e+00,2.301539788294806616e-03,-9.796623600464027248e+00
1.000054184339023600e+00,-7.055439114001022969e-04,-9.787590488709597025e+00
9.960761123880741419e-01,5.742989051815952130e-03,-9.786985855138164325e+00
9.975946260587003067e-01,-1.179640007970693752e-02,-9.790247601117195941e+00
1.005464541959595115e+00,3.013878972861974790e-03,-9.789110258957720134e+00
1.001196553389219757e+00,2.850248573172655059e-04,-9.797592420183171669e+00
9.931472746597450607e-01,9.656292374623081168e-03,-9.800340890599798627e+00
9.964096326974385409e-01,1.697473747201855634e-03,-9.792468681641611994e+00
9.955769757938206510e-01,-1.381370643087208826e-02,-9.796721507514245531e+00
1.000326258133048318e+00,6.036609043029706606e-03,-9.795802055786227314e+00
9.966450764936952700e-01,-2.145165340338223842e-03,-9.788850608281945753e+00
1.000712608990407260e+00,-9.481436042461337385e-04,-9.789237345349359742e+00
1.001201802282875697e+00,5.205408655626729032e-03,-9.793254415742405072e+00
9.967670693065887599e-01,-6.972656076520805137e-03,-9.797703839515728319e+00
9.993601099159219459e-01,3.431408783528636444e-03,-9.797751930672868426e+00
9.955424058665994780e-01,-5.674080465145855609e-03,-9.797583030634362089e+00
1.007723760399193313e+00,1.452982139467842455e-03,-9.793085192325893473e+00
9.973636900751587930e-01,3.801004023489584164e-03,-9.796233565815811062e+00
1.000991391794897600e+00,-1.155911819130804987e-03,-9.789607031901365275e+00
9.936858154444855318e-01,8.472353853385504799e-03,-9.784434036168722315e+00
1.001410054578250275e+00,-1.284247996185064423e-03,-9.793923658973261226e+00
9.940430563037098155e-01,-7.500051651866746980e-03,-9.798033726504389307e+00
1.006481357162330781e+00,2.031250343794966957e-03,-9.789136738043810126e+00
1.003976456075521773e+00,-2.560700017082946991e-03,-9.787274313157409367e+00
1.001678795444093550e+00,6.918754458610256591e-03,-9.786334843423198038e+00
1.003037182865171628e+00,-1.055580271652260295e-02,-9.792452193011950357e+00
9.963614853671427518e-01,2.413087640609636042e-03,-9.798171718098455329e+00
1.002181057595735947e+00,-8.979397412283658675e-03,-9.789021705209163926e+00
1.000074206477084893e+00,4.017925029406487977e-03,-9.788997138282905297e+00
9.978577766949117134e-01,-3.307933713510719138e-03,-9.804993144041963760e+00
1.004417843734790372e+00,-6.344981048076026421e-04,-9.798451858386011182e+00
1.004362512595760704e+00,-4.962897945646351991e-03,-9.793424847815629164e+00
1.000842502716922766e+00,6.306372359197071585e-03,-9.801958404328594554e+00
1.002552271197661549e+00,-9.658939027937019951e-04,-9.794776416713709466e+00
9.980813911205382860e-01,-1.447414449035059518e-03,-9.794269461190012294e+00
9.980182891277337154e-01,2.173397983266216801e-03,-9.794612871663799680e+00
9.974775947032269441e-01,2.730515824970598544e-03,-9.804339645580057550e+00
1.006486557215627631e+00,-3.469695934036189609e-03,-9.794705211641527853e+00
9.887717823990889165e-01,1.957560883504304121e-03,-9.787418618840032281e+00
1.000642685689963063e+00,-7.804588176056293999e-04,-9.794869352335089374e+00
9.963761631368233118e-01,-1.035216224881771452e-02,-9.789556709715300897e+00
1.000276235372763667e+00,-8.241875106651502803e-03,-9.801447665614970717e+00
1.001397149320015334e+00,1.372162993522814053e-02,-9.799310848877135882e+00
9.979726383134991385e-01,-1.322227954599223274e-03,-9.794629901640645286e+00
1.000477437200124831e+00,-1.149362703951085050e-03,-9.796371633472629625e+00
1.008500622046958117e+00,-6.114864946793344483e-03,-9.796174553331356449e+00
9.927660492034984241e-01,1.927466956977597502e-03,-9.797175550180424963e+00
9.959636886670096834e-01,-8.093513845549474284e-03,-9.796639615174761673e+00
1.005782073253531195e+00,-3.751923238515712713e-03,-9.785995313415881469e+00
1.001579262570401641e+00,5.884828194623419745e-03,-9.791160800736477654e+00
1.002428139453293898e+00,2.596006762434224357e-03,-9.792912462593063694e+00
9.962645042477081825e-01,3.035670421202085224e-03,-9.790991571164235907e+00
1.003090143937564127e+00,-8.094993462739076204e-03,-9.797272341293227882e+00
1.006791541999052297e+00,5.779629750416463881e-03,-9.785530489270504617e+00
9.958579715911164421e-01,-3.925803035987231052e-04,-9.798020289512070491e+00
1.000554182757021238e+00,3.817136038805020448e-03,-9.794557011112880573e+00
1.000032798186774929e+00,-2.029434376990500982e-04,-9.794692346876921363e+00
9.980817006533713176e-01,-1.324243845759132555e-03,-9.794209393899723892e+00
9.948647004729584964e-01,3.237654270170874787e-03,-9.791913124178343253e+00
1.001678301247066916e+00,-9.518407573666719593e-03,-9.789219627853150030e+00
1.003973832756248852e+00,4.966399028479966463e-03,-9.792416756593407712e+00
9.948512704683916130e-01,-2.909913885215167743e-03,-9.787879008723262331e+00
9.911977689390649715e-01,7.729442127397095907e-03,-9.800400251612614966e+00
1.004095619384585358e+00,4.122609218177867435e-03,-9.798284161200470521e+00
1.003345696061351378e+00,5.401751991049727952e-04,-9.791132370782468897e+00
1.002033605001514394e+00,-2.750000296298778322e-03,-9.795131952209681359e+00
1.004706395659386686e+00,-5.733471763209966980e-03,-9.796804754564062634e+00
1.008458186302946924e+00,-6.404938277393423113e-03,-9.784502835335844750e+00
9.965952252140348744e-01,-2.652634541145112729e-03,-9.788456231882282310e+00
9.954734641614186863e-01,-1.943170359610173594e-03,-9.795963707128443332e+00
9.931386792376758477e-01,-8.110676085994214177e-03,-9.789807000170569040e+00
9.945140554359561680e-01,1.134498895227986637e-03,-9.791288118121382666e+00
1.003688441171439072e+00,-2.112330949265070132e-03,-9.795143366556530395e+00
1.003302035092255906e+00,-2.913075683756337570e-04,-9.789557576305378817e+00
1.000544030042072263e+00,-6.061278838170918110e-04,-9.788217139740824635e+00
9.942185183683465155e-01,5.652343851565566971e-03,-9.795376646721948077e+00
1.003407938659963250e+00,3.672520022494761560e-03,-9.792816999252066168e+00
9.976106754247554553e-01,9.365069974958468296e-03,-9.789868733234756704e+00
1.002471142101997392e+00,-3.283566777727246668e-03,-9.798472552076257003e+00
9.909736531501446288e-01,6.310173195398277937e-03,-9.797277387250559855e+00
9.863585144587280196e-01,-2.331784523918262880e-03,-9.791934826023274141e+00
1.010082133845612740e+00,-6.545775835100457740e-03,-9.791352777046981259e+00
9.995809847140642024e-01,-4.043710108963650225e-04,-9.790490247193037732e+00
9.981350753252823393e-01,9.586661016669555070e-04,-9.791849147388154151e+00
9.937008302329325415e-01,2.292850027611114273e-03,-9.801587653387702659e+00
1.000421510576172235e+00,-9.335402527622526855e-03,-9.794776007320598055e+00
1.004796347848731841e+00,-4.151047615713350687e-03,-9.795414031465902838e+00
1.001609889746650550e+00,2.274751600239718159e-04,-9.801149381825370099e+00
1.003220519256646792e+00,-1.011387386123864356e-02,-9.798313724362254007e+00
1.008705564906294150e+00,-5.493079096132317922e-03,-9.790630009394719835e+00
1.005345561806341603e+00,-8.528877406611365050e-03,-9.793190357349633501e+00
1.004863841457335427e+00,-3.196188495300555758e-03,-9.794437513405046758e+00
1.002756928957888150e+00,-5.367848118091468612e-03,-9.790776310612699262e+00
9.917921815812932307e-01,-1.685323164986224408e-03,-9.785093668131315425e+00
9.940897699454696035e-01,1.816200378668286416e-03,-9.785650905042977854e+00
9.881686663290493167e-01,-1.426313238294190603e-03,-9.795111480246390556e+00
9.993832214222955201e-01,7.125766663268627912e-03,-9.791628742236822447e+00
9.967391359004238449e-01,-9.019847368303810300e-03,-9.800251571896664515e+00
9.950762168014934961e-01,-3.592325385914065840e-03,-9.799098737383944879e+00
9.959645522921215521e-01,2.712462369320438500e-03,-9.790088687650271737e+00
9.971851300532401652e-01,-5.105403228046102512e-03,-9.800106035437586627e+00
9.981541209634131606e-01,-1.890823245512995160e-03,-9.801351834788608386e+00
9.966122509523045458e-01,2.780097432668001724e-05,-9.792562610802377776e+00
1.001531528971283613e+00,-7.071414279551374062e-03,-9.801919185676570834e+00
1.001403761142498849e+00,-8.339394705052429607e-04,-9.788370535582354037e+00
1.002818277967500338e+00,-5.104975731730554932e-03,-9.787284651395227186e+00
9.966557615683526716e-01,5.557143633448844225e-03,-9.793636191060198115e+00
1.001805914249586760e+00,5.912402333190450686e-03,-9.794520484912263569e+00
9.922739530038283684e-01,-3.070691614554581228e-03,-9.806486201017694526e+00
9.909744606967799685e-01,2.257863272958950292e-03,-9.796099635667035344e+00
9.996039004726827715e-01,4.984419818518960425e-03,-9.796950126432140138e+00
9.992688282733147576e-01,-6.256071965187579367e-03,-9.795378487824121905e+00
1.010233608077802714e+00,-7.902493496247149293e-03,-9.791827598614723627e+00
1.004252597421990689e+00,-5.583055236981903681e-03,-9.805220378911132073e+00
1.005214903082851219e+00,-1.950973573774082443e-03,-9.799281225730734235e+00
1.003977865298052885e+00,1.667026468885992804e-03,-9.790716782421190700e+00
9.884985394310676909e-01,1.223399892309441194e-03,-9.798726126768897871e+00
1.003146781263193121e+00,-6.257319031330458962e-03,-9.792024610597772849e+00
9.989333930173130982e-01,2.487101905754701518e-03,-9.793649834273544741e+00
9.919998849020172926e-01,6.456694325882553383e-04,-9.789112920716299016e+00
9.944355123283264986e-01,-1.818400621983877127e-03,-9.795087696990353976e+00
9.974725714795873444e-01,6.335443067213895538e-03,-9.797773096571443574e+00
9.970695909866563733e-01,3.053183553074456571e-03,-9.795865975972764872e+00
9.963936992229467382e-01,-4.739493641564564499e-03,-9.791590418698014275e+00
1.000364113441695624e+00,-2.034685821347980567e-03,-9.794675137570949985e+00
9.925775226119587513e-01,-1.146626904097814391e-03,-9.791074978545115215e+00
1.002516292506193896e+00,3.458340998854069620e-03,-9.796491607143558156e+00
9.941370997953011823e-01,-5.088487356581412879e-03,-9.798874438395349884e+00
9.975627234584083514e-01,2.309550706220550413e-03,-9.799493905818172479e+00
1.001322568996178664e+00,3.653653696598205096e-03,-9.800713082067890269e+00
9.917032228437107078e-01,-9.133213637893503045e-03,-9.793731370647089207e+00
9.965651660433333392e-01,4.234253921821149250e-03,-9.789829720627459153e+00
9.903191642189479449e-01,-9.676302851935114158e-04,-9.790263717723465930e+00
9.936450147098468966e-01,5.723029541701157158e-03,-9.792363077907515034e+00
1.005546888714489606e+00,-8.343507896853006797e-03,-9.789576663933424072e+00
1.007808856187329738e+00,1.276051288901833714e-03,-9.797593066936618911e+00
9.922239446454331757e-01,1.569181447407430336e-03,-9.790465562899314023e+00
9.953709411338319546e-01,2.276611388724536066e-03,-9.786521027715016530e+00
1.001678668615122225e+00,-5.061225801067449279e-03,-9.783052620396713195e+00
9.867629989826746106e-01,-8.251008415177268213e-03,-9.788710539437909475e+00
9.985522749913507967e-01,-8.030470919692432943e-03,-9.788491816367315579e+00
1.006879036607721600e+00,-4.685602019331708626e-03,-9.794168764184831844e+00
1.006563104487062210e+00,-1.193795967321883934e-03,-9.793421357523595105e+00
1.000189279044157775e+00,4.328023806616480493e-03,-9.793868149190709360e+00
9.937301720479173595e-01,-1.056318353718348549e-02,-9.797287599050903850e+00
9.995038303030335802e-01,5.151837252180652485e-03,-9.789819591127500331e+00
1.002241169440683644e+00,1.866170636792572127e-03,-9.794091555840013896e+00
1.001013890936690576e+00,2.404351704216878705e-03,-9.792543653570431772e+00
9.970063902920750509e-01,-3.482910058798237198e-03,-9.805186673885009085e+00
9.944493643148778483e-01,-4.434647683841973394e-03,-9.798184681980126598e+00
1.000990680813578226e+00,-1.862114643484517624e-03,-9.791272580350938171e+00
9.963797821626976248e-01,3.121077629638219480e-03,-9.787924505706419254e+00
1.005862293235894711e+00,-7.244453662022451706e-04,-9.792445479653705931e+00
9.975331904628542690e-01,-5.192300660382828670e-03,-9.800296151819175350e+00
9.882000706884497276e-01,-5.048509776915004188e-03,-9.785127038126884003e+00
9.982114908323395097e-01,5.182650655469352857e-03,-9.798155468296135595e+00
1.003274401398275506e+00,-1.734293823606001140e-03,-9.797349433188607293e+00
1.003344176338040183e+00,2.957933573967664025e-04,-9.796307805949995284e+00
9.988762774516110055e-01,-4.425517867314694796e-04,-9.796950881210008788e+00
9.971135894688542001e-01,-8.296193454205583184e-03,-9.786111613489225647e+00
9.954410676478862019e-01,-6.681163034656644253e-03,-9.794160452925513738e+00
9.971214921435481715e-01,1.083369675904328512e-02,-9.799240840104076256e+00
1.002982654290697662e+00,-2.526253049845134536e-03,-9.789612699416355923e+00
9.992609283054492142e-01,1.307471874763374738e-03,-9.791288979419540794e+00
9.915704604813124767e-01,7.991997783338788616e-03,-9.798502701831127482e+00
9.919611593329865640e-01,-7.661530604514014964e-03,-9.786709458509772475e+00
9.976063334503069147e-01,-2.976701652548445400e-03,-9.800709921897444943e+00
9.971946901877607461e-01,-5.392636249890885025e-03,-9.786029215674899362e+00
9.985184527631618678e-01,-2.456427233627021551e-03,-9.791945745771572618e+00
9.981796839042246239e-01,3.116662578751950956e-03,-9.800874288580693872e+00
9.963496971554475223e-01,-6.071035509748941641e-03,-9.795135327156442528e+00
9.950559845340313236e-01,2.795873733740936000e-03,-9.796227273549504844e+00
9.956915971094567608e-01,7.258321762237542919e-03,-9.790928696481369542e+00
1.005949886809855531e+00,-3.971993296890972795e-03,-9.797956060548894897e+00
1.003030953669125314e+00,6.512277674630872126e-04,-9.793275848896179525e+00
9.986833793236754575e-01,1.696286978641521094e-03,-9.800836992279714721e+00
9.864548152831493777e-01,1.016654735424454923e-03,-9.796979058706336119e+00
9.983818632012079197e-01,-4.946188516500241031e-04,-9.799084457347490229e+00
1.007200923591492048e+00,-2.930223893134748479e-03,-9.796145974849542526e+00
9.970785806940215545e-01,2.199040801664566306e-04,-9.788398720231477057e+00
9.968105655623407113e-01,-4.285335000120211492e-03,-9.786824857181775528e+00
9.944618680113002096e-01,-3.120470433378910204e-03,-9.785097359299161468e+00
1.000103926717754499e+00,8.192966726605962341e-03,-9.793654984487181636e+00
1.000327672982437743e+00,-8.091059246983572321e-04,-9.794773888663808492e+00
9.995433645102963505e-01,-8.957845330052444446e-03,-9.790846120441173639e+00
1.001703825736933284e+00,5.999602375449816782e-03,-9.793221874968997653e+00
1.001636563432829252e+00,1.613274520827607215e-04,-9.792544784254182844e+00
1.003533905111590574e+00,-9.675956051045377440e-03,-9.801433042924159622e+00
1.001476567317353794e+00,-9.443135269019912320e-04,-9.789586737643414693e+00
9.974970889886316527e-01,-8.164215073420175162e-03,-9.785258123909510886e+00
9.908204124673758439e-01,1.720495792975012097e-04,-9.792689848412837961e+00
9.990039210797763136e-01,3.364902904079132215e-03,-9.797392082466224394e+00
1.007321247981564749e+00,-1.533382831668628730e-03,-9.796286742774267253e+00
9.933541246690417159e-01,-3.076358250248386640e-03,-9.793579259311423257e+00
1.006999714613033392e+00,3.836031760878100272e-03,-9.796036699466110775e+00
9.999400131539395442e-01,-2.053058620512436538e-03,-9.791178975543603613e+00
1.003450632299353051e+00,-2.952362844031053424e-03,-9.798709695867527714e+00
1.001747162528666912e+00,-1.837657318466629289e-03,-9.790718918536690296e+00
1.003308920142545357e+00,4.937666687505152044e-03,-9.791676516503972749e+00
9.922855602424673904e-01,9.384012204881969632e-03,-9.799577765139673602e+00
1.004424965563363914e+00,-6.044942568587504533e-03,-9.805023879429722200e+00
9.976811976145688599e-01,3.954318640852561191e-03,-9.786652653811550806e+00
1.003292720347070288e+00,3.639937145645909602e-03,-9.793207409127802521e+00
1.008782698510288123e+00,2.745779811962765962e-03,-9.787891232856100743e+00
1.010873027672983149e+00,2.139567323117371606e-03,-9.793258182783505461e+00
9.909913419635422160e-01,3.791146820366150458e-03,-9.799789212732475718e+00
9.966782165203160737e-01,-4.383860271494318187e-03,-9.802269536449442100e+00
9.901035443382372181e-01,-3.699209608540593962e-03,-9.788371485584661968e+00
1.000390900617405210e+00,-1.288430392370693359e-03,-9.795782094065863532e+00
9.958026437369253969e-01,-9.607318618080954147e-04,-9.798210378009839516e+00
1.008020853059825361e+00,4.391702948198590757e-03,-9.796808095899020685e+00
1.004016675359024946e+00,-2.495681823711633218e-03,-9.791616078426901737e+00
9.968998116124189179e-01,-3.321041060478463979e-04,-9.794120291809784717e+00
1.007739905704938099e+00,-3.817222581344390485e-03,-9.791463966843261701e+00
9.979585280934527569e-01,2.304284102144550390e-03,-9.792087863730563058e+00
9.989128426554377826e-01,5.277504895234181193e-04,-9.790385272967984776e+00
9.996431856513366965e-01,3.542585564844387847e-03,-9.799852395549667250e+00
9.915912458144822139e-01,-1.001386594416708072e-03,-9.802879086421006249e+00
9.978016210243321193e-01,-6.712087094338526835e-03,-9.792133990451043601e+00
1.001850288364197761e+00,-7.006560109886891471e-03,-9.800745416032158985e+00
1.002114198296975900e+00,7.580536579320511399e-04,-9.795078234233443482e+00
1.000591585902392389e+00,3.325714419676047400e-03,-9.798759754684081003e+00
1.000496873294401956e+00,-4.144156688283074166e-03,-9.789812810798254716e+00
9.980682493709778225e-01,5.385303936586175073e-03,-9.790987483919863621e+00
9.996638489260266658e-01,2.494384193156026427e-03,-9.791888422047088980e+00
1.001200902338089893e+00,-1.415946150366914191e-03,-9.796932274544859709e+00
1.001058730756624771e+00,1.325763969190938210e-03,-9.793669698868777473e+00
1.004091985542921117e+00,1.633857251110544095e-03,-9.797074545252900890e+00
9.920046536639469670e-01,-2.428790149314872648e-03,-9.788052097297409659e+00
1.002301844823668908e+00,5.385346713217960442e-03,-9.797008919821022843e+00
1.004195932515051126e+00,1.839786344258802176e-03,-9.792068727660412364e+00
1.001007600768437866e+00,-4.051560418125039749e-04,-9.794569340845672656e+00
9.946095220898342193e-01,6.984970766019532595e-03,-9.794764188672777649e+00
9.938618464715898160e-01,-3.691479021396320594e-03,-9.795285687743056968e+00
1.000803986356059161e+00,-6.198719296256928815e-03,-9.793794435556199218e+00
1.000679164932596343e+00,4.116002432694887414e-03,-9.792781483774438911e+00
1.001460031856414190e+00,-4.640918123850962316e-04,-9.789045078000199851e+00
1.005839903962991722e+00,-4.326815635513620159e-04,-9.787469456840085513e+00
9.933282387540678382e-01,-4.419824898119025479e-03,-9.785309106392073630e+00
1.003527404005615242e+00,8.777417408813128347e-03,-9.799828833435178410e+00
1.005177796308426297e+00,-1.122281666313116981e-02,-9.796091297260314690e+00
1.003867823399391623e+00,-1.241783892362379772e-02,-9.788412984677192341e+00
1.001265241515534754e+00,-1.773261003456636387e-03,-9.794091431703625616e+00
9.922969864126423012e-01,-2.293221842970023447e-03,-9.786189899791454039e+00
9.960962966769151272e-01,-8.679438635292002421e-03,-9.803270993434654912e+00
9.846735151170464828e-01,8.473923913175180830e-04,-9.790798522823404682e+00
1.002624754857021738e+00,3.382339881074044284e-03,-9.800557526192509528e+00
1.008505776871212234e+00,-1.738618792787488803e-03,-9.796318755302168668e+00
1.003592079029510753e+00,-1.436390689165017867e-03,-9.787888744465019997e+00
9.963277427650218954e-01,-5.005030133376649724e-03,-9.789642850265543927e+00
9.916028235362309706e-01,2.111477086776943762e-03,-9.795171267140503346e+00
9.943228808711773725e-01,-5.159984817940927067e-03,-9.789958663946798367e+00
1.002299929728926564e+00,6.161749526923577689e-04,-9.791504952941998852e+00
1.012892022540685888e+00,-1.331541946228050662e-03,-9.794848248108223743e+00
9.984938288255484906e-01,-1.787732300324275858e-03,-9.786043223995370965e+00
9.987305985160896959e-01,-2.945501275393019262e-03,-9.793248113147047462e+00
9.997121205106050956e-01,-7.346019242719011196e-03,-9.800143917177926767e+00
9.955248282470423593e-01,-4.716463675082150503e-03,-9.787619683771167090e+00
1.006037157134952231e+00,1.064485609219437048e-03,-9.793754024050171481e+00
1.005217789673176210e+00,-4.059205267982924671e-03,-9.799644352888922327e+00
1.008652714272660456e+00,-4.211212370162168046e-03,-9.801914932038741313e+00
9.944720461488882890e-01,-5.200315342641840741e-03,-9.795104848148648458e+00
1.001437202914596147e+00,-1.604119813216848232e-03,-9.799010509793689039e+00
1.003194342536297912e+00,-3.407831075043619810e-03,-9.789108173759935028e+00
1.002374880545991775e+00,1.261729646626771721e-02,-9.789433958647084211e+00
1.003510099936964606e+00,-2.421122577234037856e-03,-9.790346070473050943e+00
1.005742794242158178e+00,4.959941122835096090e-03,-9.798239589263623373e+00
9.927912981873751042e-01,6.498151206194191683e-03,-9.788546804064100826e+00
1.001048485380477748e+00,-2.971553694491805685e-03,-9.797832123021475326e+00
9.933407964538051305e-01,6.959966066044157712e-03,-9.787292974212466135e+00
1.003192731487452249e+00,4.700319534137882040e-03,-9.786170819190877168e+00
9.954111152841291776e-01,-1.750603949307841852e-03,-9.794751580826799753e+00
1.004316328295551619e+00,4.435195394894768210e-03,-9.795367964774568392e+00
9.990805239864406495e-01,-2.380866136481840731e-03,-9.801359604327956276e+00
1.000818360307161647e+00,5.913936869711561295e-04,-9.790671558995208912e+00
9.835400799137671290e-01,-6.131248656034124327e-03,-9.787341515853917429e+00
9.991149888166698245e-01,-1.956332499664772094e-03,-9.797098787899557237e+00
1.010175397252691898e+00,4.044436294263519579e-04,-9.791864272426478166e+00
9.993694492380067462e-01,-4.839708105373266393e-03,-9.790005700461568594e+00
1.001171564161530636e+00,1.494939780139314077e-03,-9.802437222082827972e+00
1.000994803133358202e+00,-8.090072782425783253e-04,-9.797067686893898397e+00
1.002137778104238430e+00,-6.191550278916606483e-03,-9.787103354523900123e+00
9.988589688977305148e-01,-1.145151757046563613e-02,-9.795476965591555896e+00
9.966926749719401402e-01,1.653508925093957315e-03,-9.794110921777617662e+00
9.993252875474859520e-01,-5.270569864973504402e-03,-9.797439665481720183e+00
9.963998157092377461e-01,-5.069114196789055102e-03,-9.787845318576328779e+00
9.942024426765984080e-01,-1.234233994456920835e-03,-9.788735522756029539e+00
1.008225542260078544e+00,1.685728972703459715e-03,-9.799146561916133535e+00
9.929897130699413266e-01,5.843442402206777339e-03,-9.796897235161184270e+00
1.003312300183610395e+00,-9.963367252940802735e-03,-9.791319895698622489e+00
1.005774858657816129e+00,-1.144110439901090473e-02,-9.803900548242905799e+00
9.941309857404798667e-01,1.079197552150569896e-03,-9.796036346385802673e+00
9.941974275114807691e-01,2.763163878986106461e-03,-9.797692382300697389e+00
9.865945623962608657e-01,2.468682374698387590e-03,-9.791186997974124395e+00
9.922823895497177027e-01,-1.002428628859094875e-03,-9.791641115051511690e+00
1.002014585250556200e+00,-7.502176034689015706e-03,-9.789296815618529379e+00
9.986575149512181282e-01,-1.726679436808517586e-03,-9.785875917045146366e+00
1.001885434781690343e+00,6.676773834979814019e-03,-9.796223514014156919e+00
9.994992107105321599e-01,3.362240658174456623e-03,-9.789698492010060704e+00
9.959744423072263153e-01,-6.939126517032430212e-03,-9.799647776753621642e+00
9.977517706228077321e-01,-8.553970250624188653e-04,-9.795605722888669931e+00
9.973481780015639453e-01,-1.419819473442862461e-02,-9.790209884648685801e+00
9.953091413024255374e-01,3.992629981736816117e-03,-9.793284829382358225e+00
9.922880092879670100e-01,2.928354009735132171e-03,-9.793177923759660786e+00
1.006561472852244510e+00,-4.498313728428912119e-03,-9.792131639786331831e+00
1.000387804646551304e+00,-5.160173677073854985e-03,-9.793096415355474704e+00
9.936870771884996900e-01,-5.601536086049110387e-03,-9.799127449060106798e+00
9.912392586475079481e-01,-5.648558317245973553e-04,-9.792283138546036270e+00
9.971190421358420153e-01,1.852705254189139202e-03,-9.797935479672570835e+00
9.989998190093759556e-01,-5.912502879900322778e-03,-9.794811491454701979e+00
9.952068447531401407e-01,-4.244992830920939209e-03,-9.787586143320421428e+00
9.953713527528228466e-01,-3.447595239318608246e-05,-9.803706677855632989e+00
1.001205894323067058e+00,4.241817772504593437e-03,-9.791092804630265434e+00
9.956538259995200146e-01,2.284718884967445063e-03,-9.799837606423354330e+00
1.002692758332366374e+00,6.557794456882939937e-03,-9.800683326089140834e+00
1.006034840019743193e+00,-2.245540260274768614e-03,-9.793442027754771573e+00
1.005932241429025931e+00,8.076948773517422233e-04,-9.788503609600677891e+00
1.000291381846097449e+00,-8.851022083103394014e-03,-9.790794856737230489e+00
9.953629204104225137e-01,-9.855561206285738153e-04,-9.797549039245486924e+00
9.933282558024141284e-01,3.472628826664928524e-03,-9.790777071337108950e+00
1.003671037202120697e+00,-2.842070458395958270e-03,-9.787647590277522625e+00
9.982237851441033705e-01,-7.521110878833369914e-03,-9.804065929749043562e+00
1.006735388362817618e+00,-3.702922633585310069e-03,-9.795084371908783893e+00
1.000949545399398621e+00,-2.422885507827987617e-03,-9.789050852439544315e+00
1.002651601894343880e+00,3.577086298598796234e-04,-9.790194634237311178e+00
1.003982325821204391e+00,6.588424490355175578e-03,-9.799656140680927052e+00
9.997650596103000442e-01,-5.926690430705098189e-04,-9.788464058213127927e+00
9.962573837620488648e-01,-2.274825768209775808e-04,-9.797912142314556760e+00
1.001773216721727033e+00,-4.550086482398671309e-04,-9.786106905408574974e+00
1.008757191485387228e+00,1.553435084878756513e-02,-9.790491601782374431e+00
1.003892555312472457e+00,-4.098269311786639779e-03,-9.784249242349474684e+00
9.943836179928509100e-01,1.544188070499034286e-03,-9.801077132186208019e+00
9.980936802418554077e-01,-2.394402527877253096e-03,-9.799282904745407308e+00
1.008165418028667659e+00,9.671453255635242136e-03,-9.802583167225796146e+00
9.922495140207090447e-01,6.914659465297015410e-03,-9.783565699552147166e+00
9.962865362611011966e-01,9.918400802276720711e-04,-9.797386481862480068e+00
1.004579582124347503e+00,2.288544087080335993e-03,-9.794550919558826507e+00
1.006892318180308221e+00,-6.508199592954397057e-04,-9.804671757054762793e+00
1.002697349056964393e+00,-1.599417907059037369e-03,-9.781799581762163243e+00
9.949051941833795265e-01,4.029201411854815493e-03,-9.796766352589516558e+00
9.970980001902269851e-01,-5.242254674447805775e-03,-9.794277219188149530e+00
9.996451942969156734e-01,9.811958940874497201e-04,-9.791751813816754080e+00
9.989845124591809622e-01,-5.741609988927627237e-03,-9.796304171170158170e+00
9.997509499895358420e-01,-3.390741099292397288e-03,-9.791880605457475184e+00
1.001299746617908326e+00,-5.537112152491580411e-03,-9.799916112757752984e+00
1.000770756252253868e+00,-6.410671816500613596e-04,-9.793620037291095315e+00
9.998624349535082390e-01,-2.819696229854245020e-03,-9.803067648473199114e+00
9.912777725838501919e-01,7.383805883132036479e-03,-9.789702648114307237e+00
9.962507606306494345e-01,-2.635797238892903342e-03,-9.791044270636549030e+00
1.004244894770831786e+00,8.705547067921403856e-03,-9.795755622509142668e+00
1.005533890153665011e+00,-2.510508348542345863e-03,-9.794158087226685794e+00
9.985523450556490488e-01,-1.167074171862494264e-02,-9.793786949247252238e+00
1.001557400990483515e+00,3.421667808806371034e-03,-9.789891565796089878e+00
9.916792160292831060e-01,1.619249952336270079e-03,-9.793490823591612937e+00
9.982247716338177312e-01,-1.938447157982754309e-03,-9.793265032739066456e+00
9.972523022701070827e-01,-3.356871399201121799e-03,-9.778906779328822907e+00
9.987344812325266163e-01,7.922581480731384976e-03,-9.796888272849269441e+00
1.004499250912153085e+00,1.239066498504240790e-02,-9.787669638551461659e+00
1.003115915339460651e+00,-5.627580581902799466e-03,-9.797369978629456355e+00
9.984585860629152654e-01,-3.138062793531728664e-03,-9.797384048985454896e+00
9.966499121260564698e-01,-6.739544046215861957e-03,-9.790549985629345642e+00
1.001240972290240450e+00,-2.111085682253093605e-04,-9.787866299610122667e+00
1.002909068699127326e+00,-6.244600102475687982e-03,-9.784067494493065453e+00
9.966309465342059193e-01,-4.263690933043315888e-03,-9.791266416432453212e+00
1.001911545048673302e+00,2.519857422514178505e-03,-9.784948513955997740e+00
1.005361613916415431e+00,4.235149365206672747e-03,-9.791281857977880421e+00
9.952515410643280047e-01,5.585038282845075988e-03,-9.791000806222060149e+00
9.962814233320879120e-01,-5.444132003253518079e-03,-9.795030472415639622e+00
1.002594109256324417e+00,6.016780700957745191e-03,-9.790704548873813806e+00
9.983624908186568003e-01,-6.589240958354709507e-03,-9.790359984726576315e+00
9.991450577392786414e-01,-6.822043044497458526e-03,-9.794882582999321130e+00
1.001855886649926974e+00,8.273215493033902112e-04,-9.796818839892177166e+00
9.929925857420515145e-01,9.118574762741781577e-04,-9.802704216737597065e+00
9.982572703903609401e-01,-7.466667765914061089e-03,-9.788706857695782304e+00
9.842296738537490430e-01,-1.295347541452159228e-03,-9.783665464381185117e+00
9.929326392002696400e-01,7.807930385955488307e-03,-9.788815346235505643e+00
9.996394575373169777e-01,5.412008789199883665e-03,-9.792920293610574589e+00
1.002400264352686587e+00,-6.807706438645235759e-03,-9.800958640009689304e+00
1.006472181535873700e+00,1.367258080600150354e-04,-9.790890235369849037e+00
9.904927333494261132e-01,-2.366322593358302726e-03,-9.794562349000443646e+00
1.003551518003464427e+00,3.135588882637378467e-03,-9.794479497899203579e+00
9.930848656358860493e-01,2.975847705912646694e-04,-9.798083780155605993e+00
1.007212324048362362e+00,9.707094302648044092e-04,-9.799346451318854179e+00
1.000754037452477041e+00,-1.868336295058934879e-02,-9.789661785691592399e+00
1.005700854405719102e+00,5.610755139031936177e-04,-9.786887901908873033e+00
1.001336829383983495e+00,1.107364057624943970e-02,-9.794557062715181672e+00
9.959596447177108125e-01,-3.085612029460418643e-03,-9.802538021792011946e+00
9.949244908823458022e-01,5.909228658751856759e-03,-9.794798552940461533e+00
1.009733041321982494e+00,1.516131146042815417e-03,-9.791211171395490354e+00
1.001971743785646796e+00,5.367477080941059249e-03,-9.786256584219076515e+00
1.007432346657759936e+00,3.964579786939405326e-03,-9.793483250323877343e+00
1.006625132959959146e+00,-1.585173755609261409e-03,-9.798150099714755257e+00
9.933206490157472368e-01,-5.451303987722717209e-03,-9.792409767430770628e+00
1.000329197103023926e+00,-2.215056524954302219e-03,-9.795121703420242909e+00
1.003038098746744433e+00,-3.332973970935999494e-03,-9.796660674127881663e+00
1.007656266081361052e+00,-1.817606616151161598e-03,-9.799777987181069960e+00
9.979971403996352741e-01,1.294808855735931144e-02,-9.802796767775923570e+00
1.004184534577777566e+00,-1.299119574504485099e-02,-9.795679218770406038e+00
9.989536919966495176e-01,9.402065402106541672e-04,-9.798024516556944619e+00
9.888867770017444325e-01,-3.982510382037417304e-04,-9.793008807504739011e+00
9.906439448010492255e-01,6.354120437087533262e-03,-9.797766064300510891e+00
1.009997841067000524e+00,-3.981363162350364839e-03,-9.798117673773230507e+00
9.981295899952342676e-01,-2.927706545125065285e-03,-9.793966758585376908e+00
9.913156862164911320e-01,-3.026420369395315269e-03,-9.793997798888575801e+00
9.970798401895373253e-01,5.170465832692010787e-03,-9.783615829254809881e+00
9.934765432934377083e-01,6.811907412595662355e-04,-9.800556084890455821e+00
1.005291493302540529e+00,-3.445446285263794369e-03,-9.791465714605841697e+00
1.000278631706109866e+00,-2.010411905451918446e-03,-9.801696919025344457e+00
9.992660655727287899e-01,-5.331409355964496222e-03,-9.789073465371501470e+00
1.008822886285184017e+00,2.477335647245261507e-03,-9.792951621115637550e+00
9.972357440864191291e-01,8.760339833390310554e-03,-9.796477671419562938e+00
1.006777204200479447e+00,-2.779557987746428694e-03,-9.792279529574093644e+00
9.970214754728780049e-01,-7.156173501029644037e-03,-9.789478052649469575e+00
1.006690330883856621e+00,-8.081871973132762760e-03,-9.790885618290765535e+00
9.951067976839578222e-01,2.432635143334830816e-03,-9.782368481618975764e+00
1.005935148785533917e+00,-2.873473263679112051e-03,-9.795312874357991362e+00
9.946541336646145259e-01,-1.983573769767674709e-03,-9.785995398410999968e+00
9.952492056694859368e-01,8.304552952343925709e-03,-9.790527032852235578e+00
9.993444172466399156e-01,-3.712524054104329990e-03,-9.790311355513273028e+00
1.005131728760834564e+00,5.766649893743568296e-03,-9.796140457003509994e+00
9.970400363029078283e-01,-4.362012519202748684e-03,-9.793071580757667149e+00
9.988495620328163849e-01,4.988454770799579351e-03,-9.795693131130958520e+00
9.965636059799225510e-01,-2.488910411882254425e-03,-9.795916723994572806e+00
9.996603567945453461e-01,2.886299114978541601e-03,-9.788353899659577806e+00
9.999297922010271789e-01,-1.546938318783109157e-03,-9.794752596764874752e+00
1.014738554593494824e+00,-1.439648660158177225e-03,-9.799160597642723403e+00
1.001377100089396510e+00,-5.108738355532690782e-03,-9.788766894559579157e+00
1.008971520820071577e+00,-9.295701969181844118e-03,-9.792189040639858177e+00
9.990923566600761196e-01,-5.144133761606225520e-03,-9.800095919459044680e+00
1.004985696234038661e+00,-8.197722984367080204e-03,-9.791186092843750188e+00
9.921931437507115481e-01,-1.687394512084423957e-03,-9.795668556883553535e+00
1.000328261368063076e+00,-4.999053797235164867e-03,-9.786262483598459738e+00
9.977758154970034488e-01,8.197392727591159590e-06,-9.800189011324926369e+00
1.004251984202353620e+00,4.696188819838407677e-03,-9.796990446252630491e+00
1.002812163749545071e+00,-4.012909490429105580e-03,-9.797518478982262025e+00
9.909172264150993836e-01,-1.729990737751229942e-03,-9.793514355187364018e+00
9.990527375015797462e-01,-1.124602366558191723e-03,-9.797024051107909415e+00
1.001623776175540437e+00,-6.423774549162293915e-03,-9.790118734640213205e+00
1.001365129430052958e+00,-1.707970616103309924e-03,-9.796666073741169711e+00
9.931378670382391416e-01,-3.482585473890113630e-03,-9.790101329905478877e+00
9.956334709649221626e-01,-2.055700618395655578e-03,-9.792637602357700644e+00
9.997010711790268456e-01,7.851994905467861441e-03,-9.792925626446505660e+00
1.002760816877569683e+00,-3.021738372853082118e-03,-9.802039723864773180e+00
9.987022182102855972e-01,-1.424565653329643673e-03,-9.794833523256194496e+00
9.978959033002876566e-01,-1.237353849609477800e-02,-9.787600848043418011e+00
9.957444547856053596e-01,-7.937119416142716932e-03,-9.804148960556092973e+00
1.004698623900812660e+00,-7.838462580384109729e-03,-9.796386542383512364e+00
1.006145013408207500e+00,6.207679246650095331e-04,-9.795647818080837510e+00
1.003384568579254399e+00,-1.888440050645280848e-03,-9.797661387773237252e+00
9.971223094114298746e-01,-1.256101997097300044e-03,-9.787601100950128696e+00
9.941006125631860479e-01,-4.006015790121848948e-03,-9.796818387078875645e+00
9.988785608445046593e-01,-2.439421394217795771e-03,-9.791047979615752794e+00
1.002124909594228841e+00,-3.311208562417556050e-03,-9.796984493948260209e+00
9.958068042572250089e-01,-1.370763712357242481e-02,-9.795915934992546426e+00
9.980035438641783330e-01,2.969699923068133771e-03,-9.787820342633159143e+00
9.991555017359943225e-01,-2.974161604253621437e-03,-9.796489335869610571e+00
9.945354106246850900e-01,6.787349241971909553e-04,-9.797922150317120327e+00
9.970843262490470815e-01,4.526023718229521542e-03,-9.791528215431107185e+00
1.006856674301110033e+00,4.417566094192344403e-03,-9.795343526320712257e+00
1.000718597471903282e+00,-3.063594682688992356e-03,-9.795752985203481700e+00
9.926815688194046139e-01,-2.610161382389132676e-03,-9.795008650314059651e+00
9.926722035762228780e-01,-6.739506766189862566e-03,-9.794290020298312527e+00
9.995611791830851800e-01,9.466908046530853396e-03,-9.793814757754667255e+00
9.997783027684158386e-01,1.655662260191413573e-04,-9.794596418819732975e+00
9.943442193490165115e-01,-2.446139970735961618e-03,-9.797766391903397931e+00
9.932196321769457548e-01,-1.817804175479980060e-03,-9.803687512237484469e+00
9.952304653350543262e-01,9.809894490560228716e-04,-9.791953194035686536e+00
1.002688416755699308e+00,-4.964409261913568447e-03,-9.789804036442486534e+00
9.960818118287921852e-01,-2.164516003064097163e-03,-9.794562123807729392e+00
1.004186385893799160e+00,-9.298455343989082619e-03,-9.795741058711293192e+00
9.996554175985512547e-01,5.128708058443118452e-03,-9.795864279584483469e+00
9.950244435396682352e-01,-7.300902033550883165e-03,-9.802273302287874301e+00
1.004293730249796290e+00,-4.723777858746797814e-03,-9.786094249172082371e+00
9.993106234375680463e-01,1.671870922788372838e-03,-9.794182779621520396e+00
1.002687440463109425e+00,-4.239420040027012341e-05,-9.794639263041435839e+00
1.006872430231993576e+00,4.848371274772857002e-03,-9.798678089398764612e+00
1.007985474000232085e+00,-4.735632046294376354e-03,-9.783214459847298983e+00
9.907099662688185759e-01,7.389180677966103797e-03,-9.793814319801649404e+00
9.992386332537309679e-01,2.982147387555918010e-03,-9.793908679933750250e+00
9.979503401407743279e-01,5.205934443882941423e-03,-9.802801080373939158e+00
1.002805483768156591e+00,-1.026004827761586771e-03,-9.789041834374197393e+00
1.000664322202640344e+00,2.876527008775468450e-03,-9.796512634717723600e+00
1.005992938437227924e+00,5.885928816954873882e-03,-9.801042393313867507e+00
9.921190693800882032e-01,-1.069943107155987491e-03,-9.793056480538876230e+00
1.001223450571639750e+00,-3.874327173288429071e-03,-9.785617232818317746e+00
9.997607277193050201e-01,-4.543395624378152899e-03,-9.790251729960312232e+00
1.005832570781317159e+00,-8.246347571352164590e-03,-9.796131400354306962e+00
1.001219162220640557e+00,-4.058516054320301589e-03,-9.795432198439096183e+00
9.959508583489448119e-01,9.632562088488101073e-04,-9.792945066993016923e+00
9.930079644992245713e-01,-5.120116518568883224e-03,-9.790502125131068212e+00
1.002405766356562422e+00,-9.006550842131097814e-03,-9.796104238281280630e+00
9.935224176215217140e-01,-3.893624235827896317e-03,-9.779478471859802013e+00
9.999113585344434618e-01,-2.516449180972951932e-03,-9.781166809719469057e+00
1.001235333509770342e+00,-7.251372940534333428e-03,-9.791065420114962947e+00
1.000889442071927204e+00,-1.854054913888968353e-05,-9.788974030998650377e+00
1.000159031561185907e+00,-5.003500054024204516e-03,-9.799755965599528551e+00
9.963163876872705993e-01,3.772543818660676739e-04,-9.792466387411613127e+00
1.000791860361272212e+00,-2.207490382351084274e-03,-9.799256577148382164e+00
9.909032483456763352e-01,-2.841573618860087757e-03,-9.794468704757440136e+00
9.940737110266171239e-01,2.286385249737397148e-03,-9.800805911164587769e+00
1.001869952487647319e+00,4.255146545442902231e-03,-9.787604654939856985e+00
9.978524791616260048e-01,-1.326442766235101569e-03,-9.793984040650588696e+00
9.986676030558740980e-01,2.708766450345654036e-03,-9.791898737688098819e+00
1.003418761883909660e+00,-3.711813942471533980e-03,-9.792467366564679310e+00
1.003585575733426438e+00,1.831470161190058019e-04,-9.795238362195894055e+00
1.004998980160397792e+00,1.549724474509047442e-04,-9.793609453667356135e+00
9.953734672771866743e-01,2.815693775785735754e-03,-9.790155488686213658e+00
1.001627335032078570e+00,-1.043152867389515563e-03,-9.789005979809450864e+00
1.000865003223879501e+00,1.011935102178235322e-03,-9.804133755161208441e+00
9.963767178767215515e-01,-5.912365788298664347e-03,-9.788306040185267065e+00
1.008253222416872985e+00,-1.200822226152751214e-02,-9.799438975812833519e+00
1.001309423356762096e+00,3.072829697393964637e-03,-9.794548171916488855e+00
9.965542234309942016e-01,-7.051246308427745746e-03,-9.788085056661824268e+00
1.000974054530427981e+00,4.278252167906012628e-03,-9.798859489512135923e+00
1.003012358519693725e+00,5.635621497001718806e-03,-9.798037587496278178e+00
1.003781904919564871e+00,-6.385175444647090727e-03,-9.799279484301491649e+00
1.004039526008215999e+00,7.116478772004732143e-04,-9.798550062786265613e+00
9.975343445015797395e-01,-1.357033194945989583e-02,-9.795681572658367031e+00
1.002986829530968294e+00,3.400087248194025649e-03,-9.800276983726796232e+00
1.001507212512811495e+00,-5.017773040422595938e-04,-9.790147842340410023e+00
1.001070323200219603e+00,-3.165649538425688130e-03,-9.795050994716874015e+00
1.010472335909875063e+00,3.387585200632436695e-03,-9.791094534847868402e+00
9.955668582586232329e-01,7.056966050645712037e-03,-9.789705547944029362e+00
9.939700375874647165e-01,-1.570721706464612904e-03,-9.796162346857881786e+00
9.999656177443490002e-01,4.497793189909981768e-03,-9.793118141746615990e+00
1.003037741791489301e+00,6.788667210660339832e-03,-9.790585683256392002e+00
9.996146910103089755e-01,-3.637099154633052431e-03,-9.780883288240103113e+00
9.996834969590004949e-01,-2.422691577745599012e-03,-9.802051612474995679e+00
9.930190033455993381e-01,4.783541124656219903e-03,-9.796181620478078500e+00
9.982434237085560103e-01,-5.023369091767895117e-03,-9.787398517593841163e+00
9.913594464080222046e-01,5.479832620830769625e-04,-9.791585030449100557e+00
1.002439109008759432e+00,-3.948422165828667681e-03,-9.799074215812325406e+00
1.003330463575125009e+00,2.632807182581800402e-03,-9.796669247465251473e+00
1.012271807945146262e+00,-9.582955898471349609e-04,-9.797333333699233648e+00
9.979295471049598465e-01,2.745478736140729084e-03,-9.796106388567748624e+00
1.005259698120997136e+00,-5.804533832224154782e-04,-9.792128951335088871e+00
1.000633581577194731e+00,8.269578959175582361e-03,-9.785987576695553969e+00
1.000308728218282983e+00,-5.809914121380644475e-04,-9.786622243841399893e+00
1.000136647593566019e+00,4.479372297309458864e-05,-9.796042072720064553e+00
9.974739337891592728e-01,-1.310361509772223036e-03,-9.796869084633287983e+00
9.982717910768824643e-01,-1.852871269274651046e-03,-9.788485646897813197e+00
9.978074428521409578e-01,2.691651390348827680e-03,-9.792301181983898317e+00
1.000444498345189004e+00,-3.638751772937935842e-03,-9.790246962624840066e+00
1.009196191290833822e+00,1.492669865631543946e-03,-9.790663070733856443e+00
9.961171823412798831e-01,-6.056939587519511239e-03,-9.793052784861432158e+00
1.005111612664582488e+00,-3.265681869624419663e-03,-9.790532875040744543e+00
1.006390426505027857e+00,3.109718435107014685e-03,-9.792018102439065785e+00
9.951175169639029372e-01,-1.408464005348707918e-03,-9.792261620134636857e+00
1.004482279901157016e+00,4.489583411409008538e-03,-9.791147025960061256e+00
9.966643892333627575e-01,2.871595840903819891e-03,-9.789519258454857820e+00
9.909103840084877435e-01,1.625853486617844781e-03,-9.797652131604641212e+00
9.969879079237831121e-01,-1.340391957635938451e-03,-9.794663060258743670e+00
1.008303999081500368e+00,-4.780355518776422015e-03,-9.800200946506278044e+00
9.943999271117901495e-01,1.879192083395065608e-03,-9.796453936655282746e+00
1.003357962263077274e+00,8.204153233642199824e-03,-9.798097652246555711e+00
1.000380044949326308e+00,-3.148140570126056401e-03,-9.789931629913295907e+00
1.000852143445466247e+00,-1.655540355289659721e-03,-9.795776964665053654e+00
1.000940497461511036e+00,-2.446163195582512755e-03,-9.792658431471712888e+00
1.000185010096936500e+00,-3.302742297411695102e-03,-9.802760654091636994e+00
1.008950751528450818e+00,-6.961235964162228868e-03,-9.789285087548467601e+00
1.001909595780962725e+00,-4.319813297338273399e-03,-9.791054936881158355e+00
9.978631183044790465e-01,1.049219845546751038e-02,-9.803369767217384734e+00
1.007891900932412321e+00,5.915481975683925357e-03,-9.799011523732719553e+00
9.969120244409058751e-01,-3.778928405618495797e-03,-9.791635282017200126e+00
1.006692146298350243e+00,1.798718288341512057e-03,-9.798498939379173933e+00
1.000599919830474693e+00,-4.962146821120559312e-03,-9.793573575660420971e+00
9.967239272655223914e-01,5.864344865208236286e-03,-9.793247218490808592e+00
9.987178869508521739e-01,4.475821677056034988e-03,-9.798015842655967589e+00
9.998459572445804744e-01,1.436356769639898865e-04,-9.791971885103427198e+00
1.002852198075886436e+00,-1.813927256949708806e-03,-9.793710082491417168e+00
9.988990057816482526e-01,6.693719088245493262e-03,-9.782623182933123829e+00
9.922585955475039521e-01,3.094994325806582017e-03,-9.796174442344366184e+00
1.005621271664632221e+00,-5.076639833430329068e-03,-9.789874801277942851e+00
1.012784048454669517e+00,8.110978538306638222e-04,-9.787113297058841255e+00
1.007178437934726389e+00,-2.273513533519857860e-04,-9.798270938071141245e+00
9.981772533291493055e-01,-1.872059869697367861e-03,-9.794554957001130546e+00
1.006658981019309618e+00,-3.629350720774195908e-03,-9.794245877336997808e+00
9.989370981940332017e-01,3.289895871918261045e-04,-9.787439642027008446e+00
1.000208778170135870e+00,4.565595806689108291e-03,-9.791391738117679822e+00
9.997504652374696876e-01,-3.362766822329010113e-03,-9.796770190410759582e+00
9.987290987375591067e-01,-4.035259928314428824e-04,-9.802336929464095405e+00
9.959596467323892366e-01,4.492213147577572667e-04,-9.789434212064122676e+00
1.009333909720381728e+00,-1.147797183031212679e-04,-9.794208504224071632e+00
9.992152319107323599e-01,-4.528942211686756009e-03,-9.794163865329727159e+00
9.889293367789214750e-01,2.372480724520615973e-03,-9.798340783302579737e+00
1.004721024125857287e+00,7.548996037172025532e-03,-9.810076011514819783e+00
9.924529877670086320e-01,-6.096527295714189269e-03,-9.792915698570308081e+00
1.011216288624916304e+00,5.482221669958062781e-03,-9.795930088125299307e+00
1.002291992379979568e+00,-5.587149155475321441e-03,-9.789024354604562106e+00
1.004266003258091455e+00,-1.920196494869648180e-03,-9.799312196125018914e+00
1.008150566589334440e+00,1.285877700302649057e-02,-9.799744837866306568e+00
9.969958347303320423e-01,1.098096888695347792e-03,-9.793439802300541785e+00
1.002174850134358142e+00,-2.118451992538580332e-03,-9.804446671183296047e+00
9.911153016974041385e-01,1.782364478162234457e-03,-9.801292147387533404e+00
9.903422769675785942e-01,-9.567622717581899736e-03,-9.793051039833407856e+00
9.886486729911547755e-01,8.118417721694982589e-03,-9.789582739191574845e+00
1.005813285151223369e+00,-4.694066668858944136e-03,-9.793675357548488947e+00
9.989748978947362579e-01,-1.070502560870405066e-02,-9.789103394676713421e+00
1.002817697060640612e+00,-7.328565763085066048e-04,-9.792705628846622545e+00
9.863359463591356846e-01,9.703881229538622406e-04,-9.798998106126985519e+00
9.989944215101307368e-01,-5.719739344701353125e-03,-9.798878883839959641e+00
1.003753601356056180e+00,-3.370831985684033007e-03,-9.799895620090589787e+00
1.001369415862832568e+00,-7.875872087513332426e-03,-9.786155221984925490e+00
1.001459159388450981e+00,8.566293104311128092e-04,-9.802262923888740431e+00
9.958618956323602722e-01,3.879030273225396626e-03,-9.797646304958249175e+00
9.945833510525722287e-01,-2.530359658800671388e-03,-9.798540269670548142e+00
9.958014012845215479e-01,-5.206464342573643121e-03,-9.791793955003914363e+00
1.000931672988373489e+00,-3.452281370252485975e-03,-9.795508326121504794e+00
1.000279424051681465e+00,1.951428091919373215e-03,-9.789872216492343071e+00
1.004182819122869219e+00,-5.772884266590631343e-03,-9.795392844588183934e+00
1.002264273019014551e+00,3.586262583595300341e-03,-9.793570194195751810e+00
9.973249584926563438e-01,3.624365643602110677e-04,-9.797245919212647536e+00
1.006083625803145143e+00,-5.786180851180820414e-03,-9.807525027623372083e+00
1.002296797077121715e+00,-8.594818995129129002e-03,-9.798393648115723664e+00
9.903315484121566481e-01,-4.811453447269442227e-03,-9.792549357563663293e+00
9.969491040474385279e-01,-2.034530242325146166e-03,-9.790710448062405646e+00
9.964872495403611641e-01,5.317313181905898925e-04,-9.791407689110673829e+00
1.007148766002930573e+00,-4.831199723997789235e-03,-9.787823481620170796e+00
9.971317571024720383e-01,-2.175279621067136536e-03,-9.792014708154351155e+00
9.982505794838515412e-01,3.939422001072830776e-03,-9.790977956479542499e+00
9.921899199919771428e-01,-3.502397086123193188e-03,-9.789604167818762193e+00
1.001237140980464790e+00,-2.421898347349700237e-03,-9.783841395869160351e+00
1.001115636444566137e+00,-5.005077351499709684e-03,-9.793108456952305474e+00
1.004422715655483245e+00,4.273513625453123806e-03,-9.803817782495571009e+00
9.939984392809750879e-01,-3.579724314920101121e-03,-9.800522407345162890e+00
1.005633010818485218e+00,9.611046983631113885e-03,-9.789412778277446492e+00
9.969771458218805726e-01,-6.194970845563420661e-03,-9.798708142945306676e+00
1.000316159457449450e+00,-3.457113338574856025e-03,-9.792450646247500501e+00
1.002261165849737568e+00,7.673710476634178559e-03,-9.801109770762142404e+00
9.943246664763704112e-01,-5.994968366104556218e-03,-9.785208380972223452e+00
9.955913417746502514e-01,-1.224773992794430397e-03,-9.794973772993198935e+00
9.994240774466419674e-01,6.290236077384285225e-04,-9.795302273406175431e+00
1.001677057854376995e+00,-4.189308502772558056e-04,-9.793219380588222833e+00
1.002051892373167385e+00,-1.383699345009927048e-03,-9.789297975419284370e+00
1.003542217085722443e+00,1.077674859350054477e-02,-9.799775217126217797e+00
9.938328077405296224e-01,-4.128263060199373335e-03,-9.792142387734472209e+00
9.987507075178194693e-01,2.666824223241466042e-03,-9.795632001159054525e+00
9.987941283920295232e-01,1.399389989509015756e-03,-9.792788298475150199e+00
9.976894557706098565e-01,-8.598742830628646958e-03,-9.790917886542580106e+00
9.939690534616884010e-01,-7.953293725557274152e-03,-9.789792517109464853e+00
9.964232298130875076e-01,-2.227071897835468904e-03,-9.795559582785829278e+00
1.002069486729817882e+00,7.825677393224260078e-03,-9.798049125978064211e+00
1.004879722932011221e+00,4.807266973574171945e-03,-9.787144345527018174e+00
9.997320070003170578e-01,-5.221283035477015597e-03,-9.795775021532058702e+00
1.003435979700048719e+00,-5.728112912835398030e-03,-9.801314929396539810e+00
9.966311306557009697e-01,-6.012380603803310630e-03,-9.792138680773533110e+00
9.974023930079606304e-01,2.617654814625222821e-03,-9.799643235451206635e+00
1.006082454856053188e+00,-5.957085132869200869e-03,-9.802499386594833553e+00
9.956266664398912836e-01,-9.545232155525034540e-03,-9.793081064727662266e+00
1.002023200779363465e+00,-1.109806408848499617e-04,-9.788283976205399028e+00
1.003080773107248413e+00,-3.873209991292826324e-03,-9.786071105484273502e+00
1.003417677859503199e+00,1.602432616040096961e-03,-9.794162349509749177e+00
9.998951810818462738e-01,5.390202412977683055e-05,-9.797358212240723674e+00
9.985061701083637331e-01,3.736166536123639807e-03,-9.793656155231881044e+00
9.991166906396986569e-01,8.091154761126003944e-03,-9.788586362221593618e+00
1.000643645005219629e+00,-3.071551653344811034e-03,-9.786353427352525003e+00
9.920691629244398069e-01,2.990919386211893932e-03,-9.793306547354525549e+00
9.905510589844628289e-01,-1.287107690100316743e-03,-9.791713418738476449e+00
9.951406003453150406e-01,-8.619791892109620246e-04,-9.786159567623171185e+00
9.952621114791042611e-01,-3.268906211192195051e-03,-9.790337417892871485e+00
9.992047009978409777e-01,2.897257838651207812e-03,-9.791410663515550894e+00
1.002769346353442836e+00,4.677285573543135504e-03,-9.786940199693908937e+00
1.005651188206150071e+00,4.363550132275941830e-03,-9.792782521582168442e+00
9.999617342528480668e-01,5.369346200378800026e-03,-9.800071861809016127e+00
1.002120619614872643e+00,-1.506999778268999779e-04,-9.797410565537113314e+00
1.003136901560695904e+00,4.920329308111545154e-03,-9.792130518869710087e+00
1.006764353691291136e+00,1.013241071513178333e-02,-9.798790694652604216e+00
9.997460276505214516e-01,-2.806181208440305854e-04,-9.796457751455813323e+00
9.999030599641489658e-01,7.716574000403272383e-03,-9.800721406988902373e+00
9.981476932177674177e-01,-7.972037459943756652e-04,-9.788957013088200654e+00
9.975251292472782083e-01,-4.355869368242964827e-03,-9.794636523479567813e+00
1.000089422771572645e+00,-1.437368968664695830e-03,-9.794347090727708149e+00
9.953368854727541182e-01,4.619607822528838843e-03,-9.792681918740608893e+00
9.998110838683138546e-01,-4.261407293685078035e-03,-9.795667002035404636e+00
9.969459810778963371e-01,3.998915218685083518e-03,-9.794276478281103593e+00
9.997173190020699485e-01,-2.399718491055657411e-03,-9.796659702824692673e+00
1.007655205745295435e+00,-5.295598244447433968e-03,-9.793958783593343043e+00
1.000138801371525554e+00,4.672446789529523595e-03,-9.796530915908697068e+00
1.002464559235743291e+00,5.341637631734257562e-03,-9.795818641874729948e+00
9.979625128955108559e-01,-3.210996729678399116e-03,-9.795241555319762483e+00
9.956776090566848980e-01,2.637601818744662614e-04,-9.792386474512689176e+00
1.007161471390180862e+00,1.937463172581223997e-04,-9.800595744584443381e+00
9.944830891944983486e-01,-2.051541671026379902e-03,-9.797246352010606785e+00
9.970561796843520064e-01,-4.565249458721782521e-04,-9.795082250677248581e+00
1.007077713990746082e+00,3.336774720106896672e-03,-9.789457730510420674e+00
1.004558254450124588e+00,-3.193830533507233983e-03,-9.794081291207261231e+00
1.002295854984511791e+00,5.654055983261298615e-03,-9.795879527133273257e+00
1.000048307133055481e+00,-1.785375800553064881e-03,-9.792946190931731465e+00
1.000527895438109827e+00,3.331840536420510417e-03,-9.789092543281872949e+00
9.979426435874073631e-01,-2.755974090143948306e-03,-9.789630781573697149e+00
9.983000889939315226e-01,2.827920948275253719e-03,-9.785411355996224358e+00
9.949643863061632398e-01,-3.445653078186864879e-03,-9.794962653959409238e+00
9.974248294148587712e-01,-2.432603073304318107e-03,-9.796107428580951293e+00
1.001752569883350263e+00,-2.922335836747682290e-03,-9.784705022424736498e+00
1.006462104450460471e+00,5.878395310485781851e-03,-9.796508491639276173e+00
1.002602978758802221e+00,4.817977746992746502e-03,-9.795016438104649836e+00
1.003075913351255899e+00,-9.839811897267708440e-03,-9.791672909379981249e+00
9.997011476882177172e-01,-6.521012693211388975e-03,-9.792317510881131781e+00
9.985151208145439661e-01,-6.708001893022338263e-03,-9.789511169415542113e+00
9.980510344490830521e-01,8.811711592768061915e-06,-9.789071459521455409e+00
1.000136274405689196e+00,-7.117370162248764370e-03,-9.793632244919944441e+00
9.993368444330659184e-01,-2.656597580343450504e-03,-9.791752491052239549e+00
9.988546622401300867e-01,-2.289850167888775757e-03,-9.797769850206696773e+00
1.005587441470290555e+00,-2.544699609661567850e-03,-9.799049229293203211e+00
9.941406936596718369e-01,-1.466947634711172205e-04,-9.780260064783210083e+00
9.966313825449696351e-01,1.448240989175709603e-03,-9.784627076972185478e+00
1.006528059498587924e+00,-5.575936823623920020e-03,-9.783417493753045591e+00
9.958639805951248203e-01,-8.646396710927282091e-04,-9.778154234515996635e+00
9.991087750927165612e-01,-2.941947396887144989e-03,-9.784464139927242954e+00
9.978020974026291512e-01,1.844398395701522678e-03,-9.791848393321382460e+00
1.004293184099935399e+00,-1.075703929014550433e-02,-9.788177293583489202e+00
1.005519854827930937e+00,-5.429366561882587256e-04,-9.799259627200182621e+00
9.976609267378342416e-01,4.061775157401944017e-03,-9.792271745814042916e+00
9.954087646480579421e-01,-5.950994189572096985e-03,-9.798835277068004501e+00
1.001298381468463949e+00,5.412335822010358108e-03,-9.795298925687044189e+00
9.980472405922274914e-01,-2.211134215613968536e-03,-9.796128592465354501e+00
1.008493711182807395e+00,4.082522571510798642e-03,-9.798817475632251472e+00
1.004319052291524184e+00,3.248857104660120808e-03,-9.795393292178641076e+00
1.004388758012538574e+00,5.237178383564578855e-03,-9.796103179771774805e+00
1.003970762355089308e+00,-4.718341184458594260e-04,-9.793438893312060856e+00
9.882701168106143852e-01,-5.737279547774185029e-03,-9.789589860788947107e+00
9.974235697433385672e-01,4.678328455155064507e-03,-9.786996116952035862e+00
9.905502055152153318e-01,-2.239225008708498402e-03,-9.794162902251851932e+00
9.996752558050978621e-01,-1.519741043112200892e-03,-9.791788382971271076e+00
9.987868953219325441e-01,1.785757547818902884e-03,-9.792219308547059242e+00
9.930932700409044189e-01,-2.544863628919278708e-03,-9.793469259082327127e+00
1.002727812171663180e+00,8.880415088516043030e-04,-9.794022718268060146e+00
9.955497637629062702e-01,-3.779623855393069928e-03,-9.795697433189660686e+00
9.949939692671394553e-01,-4.950681727855079338e-03,-9.791810334243265856e+00
1.007353633977642993e+00,-1.078552432589453608e-03,-9.793951511952013078e+00
1.002554353108367380e+00,2.655689783974046411e-03,-9.793806958032096333e+00
1.006593748584055259e+00,-2.553743682649260282e-03,-9.796415557092631232e+00
1.004652136188754596e+00,4.894119063975073229e-03,-9.798072596378727184e+00
9.977178140344580282e-01,2.111044459079904588e-03,-9.791315006861150749e+00
1.001513021075496557e+00,-4.339721957598723784e-03,-9.788631318573388640e+00
9.984882278963942426e-01,-2.354970417835151094e-03,-9.792431690041984993e+00
9.947953265587675675e-01,2.764487303078127199e-03,-9.800354802538290500e+00
1.008766755113874813e+00,9.145288085916788989e-03,-9.786569657034831948e+00
9.959002191277176452e-01,-8.273546222581609072e-03,-9.788701819337417120e+00
1.001449799346916469e+00,-6.081303626933818804e-03,-9.800503190097492379e+00
9.970911956260570808e-01,3.710584090579241868e-03,-9.795247789909604208e+00
1.001769800292326318e+00,1.143135534325642744e-03,-9.798607552615159477e+00
1.004068798706553745e+00,-8.704377325318292391e-03,-9.786797776341757071e+00
1.001531902916111383e+00,4.990668383513837195e-03,-9.792359266823101649e+00
1.005478044883555633e+00,7.550412063166539109e-03,-9.796663355967943687e+00
9.988484310132641486e-01,4.896374186926166598e-03,-9.795244254406499707e+00
1.000675623860797225e+00,6.888484926095363864e-03,-9.790002850072337282e+00
9.951728756220258321e-01,-8.621993614457638521e-04,-9.799375397406949517e+00
1.001404928749417556e+00,-2.267511601220356318e-03,-9.791403585716851765e+00
9.971421733885467154e-01,8.780798226665741113e-05,-9.797074244952252542e+00
9.969938593418274930e-01,9.371321316094126733e-03,-9.794569752053268630e+00
1.002119159933560155e+00,5.393077881253620885e-03,-9.787846618642207730e+00
9.868888841770983023e-01,4.540122838144041752e-03,-9.794046479882613454e+00
1.002084494122283287e+00,4.872845601468370549e-03,-9.794677272415938774e+00
9.942344549790466113e-01,6.995316660424429241e-03,-9.791293210411863512e+00
9.937204315423616707e-01,-1.729216521265609669e-03,-9.785033947759560036e+00
1.000334356871865005e+00,1.858739015863666161e-03,-9.796406837880098806e+00
1.011605064660098252e+00,6.360986008022814948e-03,-9.795737330531689935e+00
9.959622629404384364e-01,-1.549232425503554913e-03,-9.785262624228076689e+00
1.002760556592741326e+00,1.012322655976693672e-02,-9.789547203275516196e+00
1.003352211141003592e+00,-4.800158414850859076e-03,-9.802797872845809835e+00
9.906170664434517104e-01,-2.405815138683859052e-03,-9.798880400113420208e+00
9.986398725469444182e-01,-3.729112577524101597e-03,-9.790646327577952945e+00
1.009497339337049437e+00,-4.807152157846088930e-03,-9.799157952782211467e+00
1.003165577655979579e+00,-3.165800579339475129e-03,-9.792431322023146478e+00
1.006321319598564079e+00,1.457143769700833388e-03,-9.796206148242308842e+00
1.010462708511981722e+00,-8.877415425073165514e-03,-9.800316863706914461e+00
1.004790943780129453e+00,3.278706413532476646e-03,-9.795850261058731689e+00
1.005392542334726080e+00,-3.293848460422162897e-03,-9.798872159188691811e+00
1.003388623296075810e+00,-7.620156584137434061e-03,-9.792919814368117315e+00
9.980113619174016959e-01,-1.030054306939445947e-02,-9.790303612242230002e+00
9.922784269641157229e-01,-1.924452466320712620e-03,-9.789956555832461049e+00
9.997077765129206428e-01,-1.467355379448692567e-03,-9.793591751459704398e+00
9.974402419787002927e-01,-1.330095124955571646e-02,-9.800002854945510933e+00
9.985623143471821228e-01,5.050803347561690776e-03,-9.783990767878986361e+00
9.922345990927132764e-01,4.488601063998123690e-03,-9.796567446109236244e+00
9.949022267509648465e-01,-2.352742375249591497e-03,-9.795481430322869443e+00
1.002854416701778550e+00,-2.499165583650854450e-03,-9.790071398054603691e+00
9.990618539477480464e-01,8.430385088283455508e-03,-9.798614527376743766e+00
1.006520868081554498e+00,-1.150569731383730733e-02,-9.800722322903714812e+00
1.002511080717265024e+00,6.316328705018026124e-03,-9.798946455380299625e+00
9.959365636957876466e-01,4.948382009180720721e-03,-9.796977146166344852e+00
9.856723060459684493e-01,9.765677481443585037e-03,-9.797434159229430506e+00
1.003614787670416897e+00,-3.643327121864489010e-03,-9.791314057424200357e+00
9.932403983935458314e-01,-7.369190845627044371e-03,-9.793729806550954819e+00
9.936504015190923411e-01,1.844772204647672238e-03,-9.789434246476808710e+00
9.884946414014704752e-01,6.862872107915376184e-03,-9.788285245213534935e+00
1.003170380528644268e+00,-2.239399693759744521e-03,-9.792406881778111583e+00
1.000756064709655169e+00,6.128557743592399215e-03,-9.795400933836486246e+00
9.979841902747299542e-01,1.749732670786829447e-03,-9.790715411582040062e+00
1.010181544717104085e+00,8.006586184901617453e-04,-9.792723070506983873e+00
9.975100691936330533e-01,-2.955020121558981239e-03,-9.792169451965548888e+00
9.968889277548983463e-01,1.428987885863981832e-03,-9.800521417477620290e+00
1.000728981008389695e+00,2.388223003973989622e-03,-9.805428453228241636e+00
1.005030639365197986e+00,-6.409080511574833869e-03,-9.788031038242186455e+00
1.002866303349380983e+00,-3.098243402245120983e-03,-9.794587705686540247e+00
1.000644144351688469e+00,-7.456794912520524517e-04,-9.793261763541401876e+00
9.936983406870102398e-01,-2.970092229628614865e-04,-9.801362556034339590e+00
1.000814293353299078e+00,1.526632381653058538e-03,-9.797601998586168648e+00
1.001897817252312084e+00,-4.734577654254110320e-03,-9.803430042008962175e+00
9.996251559771462958e-01,-2.541184000505551915e-03,-9.798803416191541160e+00
1.001653294546378081e+00,-4.173967666057048706e-03,-9.799599856178721424e+00
9.990127476970981357e-01,-2.209291547233039211e-03,-9.796239601869295655e+00
9.973175814449866117e-01,-8.655735599433915170e-03,-9.789800593350889812e+00
1.001916339958458524e+00,4.161186229712946025e-04,-9.792126703715934966e+00
9.918273290911313600e-01,-9.872814428608287472e-04,-9.796219376537724344e+00
1.003279630843698422e+00,-5.539218041185133695e-03,-9.798508113754191839e+00
9.976658396320664535e-01,8.485568011021397961e-03,-9.796191116011090827e+00
1.006430742493586994e+00,-7.338699772626927458e-03,-9.794660729032719004e+00
9.965260623819464092e-01,5.863940962196127239e-03,-9.798045658886064047e+00
1.002055066307349529e+00,-9.083825191808411401e-03,-9.794831581688562494e+00
9.931894965993999236e-01,-1.153801599375024094e-03,-9.790628546779116093e+00
9.998879225518522151e-01,-4.929419099628655140e-03,-9.791660802050149215e+00
1.000665626941035891e+00,9.186914043651154757e-03,-9.796210956134087766e+00
1.000963849283734941e+00,-5.858263626145762681e-03,-9.787754903358193204e+00
1.002501553674034040e+00,5.147033711142084099e-04,-9.789067062431387356e+00
9.930007350197423976e-01,-2.724961746264755423e-03,-9.790885612014790240e+00
1.000385668506636350e+00,5.726612119352391533e-03,-9.790663701251556716e+00
9.967321141554279507e-01,-4.598304993005737640e-03,-9.791054737834013366e+00
1.012511199276803220e+00,5.509911500060348313e-03,-9.790184214356647985e+00
9.969568185887925926e-01,-2.341471255158054758e-03,-9.788851554418124934e+00
9.954591923023110578e-01,-7.354607318032376460e-03,-9.796616108609711659e+00
9.999423163380316559e-01,-5.076189250727569831e-03,-9.790300802863786345e+00
1.001484975147904466e+00,-1.245412865058848247e-02,-9.791637669123677057e+00
9.845832723738974224e-01,4.261445456865773501e-03,-9.797807502640003108e+00
9.983386725119920424e-01,7.074829718921385457e-03,-9.791935501713137313e+00
1.000552644660320123e+00,-4.323276351739448360e-03,-9.789459740052974368e+00
1.001346070344781181e+00,-3.519971700819530223e-05,-9.799412034388103265e+00
1.007151608020487643e+00,-1.472457193483812238e-03,-9.786532720633481119e+00
1.002246736484969647e+00,5.568926164613971844e-03,-9.794847539964591121e+00
9.986477728073293036e-01,-6.363469679626441999e-03,-9.794076030813446465e+00
1.004161601252103519e+00,-7.124712582426888895e-03,-9.798395619602530360e+00
1.011898884832928669e+00,1.961921966722009886e-03,-9.788745676278141516e+00
9.955668534171119299e-01,-1.956174049688998336e-03,-9.801582378333064227e+00
9.970764302733685636e-01,-7.195541874190771597e-03,-9.802392233104038510e+00
9.955851898385468246e-01,-6.324710106022970665e-03,-9.786242248657821108e+00
9.974297604354284141e-01,-9.654968073668859091e-03,-9.790951728238903584e+00
1.005519715546887793e+00,3.000478011275255034e-03,-9.795808786134246660e+00
9.981574528897618759e-01,-1.940520901816418899e-03,-9.793168965881466903e+00
1.000360803345478056e+00,-4.906312414328481593e-03,-9.797474766579993499e+00
1.001762312087695950e+00,-5.615762257374545124e-03,-9.789069020874345384e+00
9.962363255662844974e-01,6.043335582581516388e-03,-9.789592068475016617e+00
9.980857555538880099e-01,1.676542374549699031e-05,-9.790932799473964110e+00
9.880218563503497808e-01,-1.189993366173091802e-02,-9.791644381171563438e+00
1.004895663114809157e+00,2.189562913109193223e-03,-9.794703728379305474e+00
9.976093862502846132e-01,5.717262374862552322e-03,-9.787154692173729131e+00
1.003525566266118663e+00,-1.719510309752384598e-03,-9.791705959206995047e+00
1.004948403480121266e+00,-3.443477117771526382e-03,-9.792731148457892942e+00
9.997869385970007405e-01,4.209132974786827189e-04,-9.789866924309388097e+00
9.897453502841001560e-01,-2.080590212774645342e-03,-9.788962676420364772e+00
1.009720556742769171e+00,-4.903655300596166701e-03,-9.793997835694602472e+00
1.000864490764989734e+00,-5.590883968845553964e-04,-9.796237213377676056e+00
9.957461858474498939e-01,-5.762037667147367100e-03,-9.785920534414314531e+00
1.006089416985946006e+00,-4.932167320309505804e-03,-9.785924489379217661e+00
9.965844434968831322e-01,-3.701967831687379140e-03,-9.796034663242936702e+00
1.001787302821766090e+00,5.067700629561264734e-03,-9.797284293528592869e+00
9.919953394467289076e-01,2.440329047868075585e-03,-9.791945678143285647e+00
9.993256493965441134e-01,-5.614016416922799554e-03,-9.791513987180406886e+00
9.915837692132971615e-01,1.340643510591958123e-03,-9.790187997058497515e+00
1.003050588161163548e+00,-8.721852967800022838e-03,-9.790370984081762984e+00
9.989225503862065869e-01,-1.432822036345050062e-03,-9.798035368088454433e+00
1.001515532538682418e+00,1.862711194854914940e-03,-9.796138722490635331e+00
9.986054828234127712e-01,-8.234736672341544730e-03,-9.788181975521945688e+00
9.955308455073825780e-01,6.492086806269433373e-03,-9.789919900621583793e+00
9.991962321183305296e-01,6.645749932932248222e-04,-9.797070951053045818e+00
1.003942838014497241e+00,9.699422828463857491e-04,-9.792509583577855281e+00
1.003637938374605465e+00,-7.332673036537569466e-03,-9.797912868988980506e+00
9.996322542159213898e-01,3.055468351835299162e-03,-9.793910010708634317e+00
9.996385150375740603e-01,3.213067694821281680e-03,-9.805895499434068796e+00
9.968217408879945785e-01,9.145812623524915419e-04,-9.795978231306781581e+00
9.960956505824041241e-01,3.894185019731717656e-03,-9.793072066543750509e+00
9.933916658166530578e-01,-2.319021235245165898e-03,-9.785684437453166851e+00
9.944181005473891055e-01,-2.800219757485793333e-03,-9.793306036560927907e+00
9.979952730640284653e-01,-9.113550968121091750e-03,-9.800831739683427912e+00
9.930349663747441991e-01,-2.638180592062108493e-03,-9.798937420612086058e+00
1.005890129474216410e+00,9.752107054907717138e-04,-9.784715208816265886e+00
9.993858422775319106e-01,5.731898951628774941e-03,-9.781620734175135112e+00
9.996133835060559969e-01,7.782477298063838686e-03,-9.792345027995681406e+00
9.964541961143509319e-01,-4.100963320629339923e-03,-9.794105856144859956e+00
9.972872221957295169e-01,-1.396881901394691301e-03,-9.794845984285075247e+00
1.000912138217509018e+00,2.684499705583359014e-03,-9.782386563853082251e+00
9.989327151132741944e-01,7.177961242334101634e-03,-9.794082388787911597e+00
9.970920697160711166e-01,-1.145061579566067529e-02,-9.796638236561296509e+00
1.002608467847670548e+00,-3.818830968450661299e-03,-9.798976995471528895e+00
9.993023271624262849e-01,-2.029634810099803423e-03,-9.782201000022990200e+00
1.002335673479368694e+00,-4.119027382862507254e-03,-9.789980669761840559e+00
9.997366999399155407e-01,-5.635223621399255804e-05,-9.799629266149342044e+00
9.935754415433583064e-01,-7.157548948848314711e-03,-9.789321677999653915e+00
9.973868049302053729e-01,-1.032437255499095083e-02,-9.794206321260533699e+00
1.000478284061594891e+00,-3.209483234217709417e-03,-9.800751615686920104e+00
9.897571231389989954e-01,-7.134759562081559314e-03,-9.791419351982675323e+00
1.009962845825062017e+00,-1.004332214536667739e-02,-9.794720899062973274e+00
1.006249914967531689e+00,-6.552259252480508670e-04,-9.791854598593115355e+00
1.005875507870822583e+00,4.453773649079554708e-04,-9.796306550918313150e+00
9.941381805888086509e-01,-2.053276090668330195e-03,-9.798313667620700329e+00
1.001112841132482556e+00,-5.154172775003630982e-03,-9.787929344273685217e+00
9.964484338645648309e-01,-4.914271438422632837e-03,-9.799051277193864706e+00
9.951911692494243011e-01,-1.426602836900392642e-03,-9.787887334228283720e+00
1.004453844758644632e+00,-1.094745798227025196e-02,-9.794421680581910650e+00
1.001610128415577838e+00,-6.608903683930160942e-03,-9.785488461111574665e+00
1.003902126689606211e+00,3.975448547449611167e-03,-9.793746019169017103e+00
1.000169849751899154e+00,-8.952542834621498614e-04,-9.798689705510811976e+00
1.007101198116847174e+00,-1.423155906021350775e-03,-9.797768494640783032e+00
9.960523937975607200e-01,4.296545208421357134e-03,-9.797656085960619876e+00
1.002550150617907532e+00,5.706937321407351289e-04,-9.794408781508693096e+00
9.997446181483150562e-01,4.163872096388427507e-03,-9.794616188855622241e+00
9.983440784510283494e-01,3.825445522458987765e-03,-9.790236621169228215e+00
1.002611981099192029e+00,-6.908616638031411794e-03,-9.796728298951817848e+00
9.910096832922991039e-01,7.790723697072483335e-03,-9.805828601780584464e+00
9.969236042321798497e-01,-3.442462915912507596e-03,-9.790830970027457170e+00
1.000785346548544563e+00,-6.261212614548577332e-03,-9.791794318835016497e+00
1.000448759699625212e+00,-6.351936416982372977e-03,-9.788421865831493207e+00
1.001401420637389794e+00,-3.205025857043903963e-03,-9.794260619987722905e+00
1.002363390906985563e+00,-1.724176773182854554e-04,-9.798573434424204365e+00
9.953871535713676444e-01,5.333011582370490722e-03,-9.792621653068279031e+00
1.008958355008949148e+00,-6.058572475301903654e-03,-9.796221928572380833e+00
9.927236768867743200e-01,-2.581902757546004727e-03,-9.799539220537790030e+00
9.992397667403950523e-01,1.145922838718413470e-03,-9.793493604124906327e+00
9.997786080492362393e-01,6.359412976344486646e-04,-9.785328408763799501e+00
1.003298545611580161e+00,-4.912298060788110494e-05,-9.797772065362867266e+00
9.977113808101459869e-01,6.838236930551437262e-04,-9.794147231371084672e+00
1.000191878276085689e+00,7.263817650139309245e-03,-9.790625898186444687e+00
9.871022314889578153e-01,-4.526704022326676416e-03,-9.787435191661261413e+00
1.006614782615747439e+00,-6.095486309867515981e-03,-9.801117401421736375e+00
9.959920586768632456e-01,-2.131462550327150804e-03,-9.799638830308705195e+00
9.974094343875106183e-01,-4.018937378356188597e-03,-9.790947307236223196e+00
1.005909215232442477e+00,-1.335185552102629084e-02,-9.790492451805524965e+00
