gyro_x (deg/s),gyro_y (deg/s),gyro_z (deg/s)
-4.728484799987060783e-02,3.366230919411249828e-03,4.838352176339508898e-02
-6.572599193244880317e-03,-2.250493240661044503e-02,-3.975734464412623848e-02
-2.992363108173695663e-02,-1.671790472666740551e-02,-3.219327621727670341e-02
-2.153204037056970915e-02,3.620850754040634556e-02,-5.995791133490206704e-02
-3.349274499898870217e-02,-9.509550475807744194e-03,-1.302663610677577688e-02
9.014014486025961892e-02,1.370679894037141536e-02,-1.875184666340470657e-03
1.255434279228311023e-02,1.459330625347044115e-02,-6.131271337584840060e-03
3.093031300381523727e-02,2.637596892683122946e-02,2.643798328796256522e-02
6.672690484545451550e-02,-2.361437361718746880e-02,2.397768598481046787e-02
2.794184866064389552e-02,1.224444395537524141e-02,2.631217528223495777e-02
-1.495040985023057909e-03,-3.307951317089532356e-02,2.430799246553752915e-02
-2.661450142096806470e-02,1.737432528879285024e-02,4.279030038441797995e-02
-1.798675261265571604e-02,1.349963863356443312e-02,1.295883552702207508e-01
5.651455697026940006e-02,-1.442945828840486687e-02,4.022357296953156351e-03
-1.271588364540914874e-02,7.629694602714763574e-02,2.028892252005000743e-02
-3.840520329450274051e-02,-2.240739222991267217e-03,-2.637277590622799997e-02
2.024119933167339153e-02,6.229845316682229572e-02,-3.119042879733020628e-03
5.345054449816376112e-03,-1.120297675354526082e-02,-6.100369379560953431e-03
-4.633189089569769714e-02,3.327507487045135181e-04,2.803357482990300603e-02
1.319477899491647288e-02,1.181788831843433481e-02,-1.154831842792095192e-01
2.831666477510722327e-02,1.115002365741708280e-02,5.652635982961590894e-02
1.263314552092146270e-01,7.615209618661307467e-02,-3.421454607259435954e-02
-4.969466085083480700e-03,-2.422223767909569697e-02,-7.188904223321475329e-02
4.777662128987261725e-02,7.148079935199606015e-03,2.784047464325010990e-02
-3.875642797498602549e-02,1.037939952852560271e-01,-9.237354022886829288e-03
6.879590277206058813e-02,-4.879753870328672194e-02,-4.275116579733631572e-02
-3.620499475872428208e-02,6.714163918972392009e-02,-1.661610871354822277e-03
5.921023989866174009e-02,4.558046803008317799e-02,1.953935487869080945e-02
2.978216028265160201e-02,6.478341466238440871e-02,1.547914204355545567e-02
8.248807331535085163e-02,4.053207500519587225e-02,9.899152139786100701e-03
3.059587549736211484e-02,-4.058299321791724451e-02,7.644166531890262718e-04
3.205287387549491523e-02,1.631666938351119742e-02,-1.634324734425027584e-02
-2.895747065451301575e-02,-3.336826660467282629e-03,2.267749781969307515e-02
-1.712294191187916856e-02,-3.149557103245696071e-02,-2.856834459578310587e-02
5.965155663594597091e-02,-3.424093272313438741e-02,-2.906002397211315466e-02
-4.103681214084026196e-02,-9.527515380398718370e-02,6.472307461540212359e-02
1.129231275178713551e-01,3.202748474106244247e-02,-2.832777317938626679e-02
1.966697086863682369e-03,-1.140446452533295596e-03,-2.497518126641344247e-02
-7.177438809918767863e-03,-4.861000298681623227e-02,6.029686016903716304e-04
-4.517468207981308742e-02,7.311955767287925401e-02,2.295558160980940704e-02
-1.902072379258247167e-02,4.401700576249048535e-02,2.963160769414785456e-02
-4.318073117547494011e-02,5.935388218177245490e-02,1.431750709398460497e-02
-1.209708751133643095e-01,3.723492908437647797e-02,-7.774275689721004898e-03
3.395799201525954991e-02,3.010228690066908339e-02,-9.115817150595119725e-03
5.791149725171547413e-02,2.796793731343363842e-02,-9.890223908884544085e-03
5.379082210797716396e-02,-1.342684623595040774e-02,-5.308725701084067439e-02
-1.658393203359176393e-02,2.231831283680616590e-02,5.289391739298381079e-02
4.320184624064478396e-02,-9.088663306472893888e-02,2.581874503062618967e-02
3.073580132102445711e-02,-3.021556608011063700e-03,6.514222192477717166e-02
3.516838721185781835e-02,8.126159884043224202e-02,5.448005901317129127e-03
6.704955728371414514e-02,-1.924243928151009352e-03,2.066171660007983316e-02
4.514658611456040527e-02,-9.918819039358617654e-03,4.481609700351688735e-02
-2.534133042015747697e-02,-5.574606524476646320e-03,3.163358627869336526e-02
5.340372242139100785e-03,3.120047374412393201e-02,1.095662529127608142e-01
-3.302561418842688001e-02,-2.254746351942559651e-02,4.564578380986120121e-02
2.592667962768622526e-03,4.659117667060554829e-02,-3.612919499991992713e-03
-4.797686615546347538e-02,2.401904733859861266e-02,-8.566614609154218907e-02
-7.325155563558759415e-03,-7.153335099018096055e-02,4.070330946198840588e-02
1.251398473476156986e-02,-6.496345043810032582e-02,5.039667182131533918e-02
-2.483984210701419351e-02,-1.196597838918934086e-02,-7.689814340071886301e-02
-6.065112718766543093e-02,-5.586705952567874722e-02,-5.329099241575700752e-02
1.786049155844514694e-02,3.594117831201529278e-02,-9.456163177934090447e-02
-9.531840725190421360e-03,7.730872227689573883e-02,-1.889481983225059156e-02
1.152309790692045144e-02,-1.667549705532693494e-02,-5.474746814508110217e-03
-1.592950988755338637e-02,-3.514867772576833749e-02,-1.333297438033616798e-02
1.101855143478411118e-03,-1.883705685262723056e-02,3.333873222290141547e-02
5.012217818518396178e-02,-3.454313780791060107e-02,2.950888302259203205e-02
8.629792291384273673e-02,-2.873234071055130734e-02,-9.226313403263299018e-02
1.904551760047974371e-02,-9.040322874827443067e-02,-2.969823547145574848e-03
3.078289112365446833e-02,-6.997681882632031218e-03,4.187198184875554063e-02
-2.165966402274562691e-02,3.505881355211624972e-02,-1.363739068968486401e-02
-1.430667810665604486e-02,-2.051797458046665870e-02,-4.511646294038035299e-02
-3.128962298402705733e-02,-6.761461602858248598e-02,-1.559298298192157359e-02
-1.180130072490100449e-02,-9.809960588147968730e-02,3.249951019445184580e-02
-5.578586041737612633e-02,-7.553777677118445055e-02,-6.805983850576529173e-03
9.731206670975266204e-02,4.766901199551017154e-02,6.408542845559166146e-02
-2.796702108204566356e-02,8.166040167264784549e-04,-1.625197915420905151e-02
5.280711840242298394e-02,1.525692907088972358e-02,-5.527334533037629727e-03
3.016352509790994063e-02,1.908340581836978286e-02,-1.684021692499770156e-02
-3.149975843441716380e-03,-3.235280768713096056e-02,-1.191497829824049448e-02
1.013167241157360288e-01,3.471418330379131417e-02,-2.254980306509008978e-02
5.787823396844795493e-02,1.649273091097259308e-02,3.652474029528756782e-03
-5.989942346731009365e-02,-1.896280821369261335e-02,2.784453715585557404e-02
-5.371065916799257559e-03,-1.999151067152885389e-02,5.851994435490962682e-02
1.218347351196248651e-01,-9.351497980404906152e-02,-2.292830257487851395e-02
-3.533835745660545563e-02,1.264582543951295844e-02,5.628311061837586171e-02
5.116197178434735149e-02,-7.867060330544754787e-02,2.577570900994297781e-02
-1.069409348862434411e-02,-1.657248955734368437e-02,-1.306073703236402261e-01
4.977843036576182212e-02,4.072702899945841032e-02,9.663034285331974227e-03
1.871260087239285871e-02,5.270312384722853488e-02,8.723532568223703321e-03
-9.258951159915530110e-03,-3.114142382665258113e-02,-8.549821813712325802e-02
-3.307352811527120712e-02,-8.596666582087358552e-03,5.411067079223781662e-02
4.024290119897801221e-02,-6.622249267416184873e-03,4.914487918428033647e-02
-1.631340192523758961e-02,-1.345842769965533217e-02,8.195188042640655715e-03
8.567429990641091397e-03,5.477758261466136869e-02,4.428760497052202511e-02
-5.666606955196327317e-02,2.984263470952235996e-03,-5.229606193610734227e-02
1.449259399844518743e-02,3.624378498859906483e-02,-5.031110767430688538e-03
-3.310008460482777998e-02,6.526648687503532054e-02,4.767194387724675575e-02
1.493157766936929233e-02,-2.191879471957669523e-02,1.489253895032502904e-02
1.286777936290233945e-02,5.082951311174910758e-04,1.313814962525384523e-02
3.451832616247832441e-02,-1.421963148833556290e-02,2.422943219179472460e-02
-5.059502297109893555e-03,-1.010089476573806412e-02,5.258256230170259282e-02
1.045804686353858787e-01,2.363073478689138238e-02,-9.642542763122971539e-02
5.556524755180286546e-02,-1.662205545009093344e-02,-3.048755447776022379e-02
3.266371857403268381e-02,-8.150042315613083982e-03,-3.212669592415717118e-02
2.115919354537816946e-02,5.265796195099024281e-03,4.544168899915797949e-02
9.487586592635464250e-03,4.207398082615167179e-02,1.652102926339250877e-02
-9.372802321161619390e-03,-4.363224283064284781e-02,2.295773847655802752e-02
4.837280177109102436e-02,-6.701862381898809895e-02,3.890067251559351652e-02
-8.399173783356295164e-02,4.867118967071483904e-04,2.594150897977067632e-02
-1.584389612422467189e-02,-2.489685493283449319e-02,-4.647903091175539791e-02
8.024421315305394972e-03,-2.262770041684436517e-02,-2.217927206989803515e-02
-1.835622969397530252e-02,-3.892110733700966576e-03,3.012032571214450622e-04
3.146392780248570206e-03,1.067361536445475025e-03,1.956143121724421632e-02
1.505699638227295765e-02,5.801265794505934895e-03,1.116700802477594429e-01
1.359585920675786958e-02,6.867175551082163945e-03,4.709943287915883264e-02
2.200458926921004116e-02,-4.565646712178857147e-03,-2.137813650986773034e-02
-3.961924362229937713e-02,-1.505704460732464577e-02,-5.100448186291306474e-02
5.067362736921025151e-02,-4.777311931396520384e-02,5.949423592849258091e-03
5.212607497169001458e-03,3.991629978869636053e-02,8.510884526782952139e-03
-2.236730202566408407e-02,1.907526525109142293e-02,-6.063036119950707126e-02
-4.913535365723541160e-02,1.777244528266578097e-02,-6.187820536540329652e-03
3.604984784126453318e-03,6.399373608133633595e-02,2.080948262080804106e-02
7.791632698710078408e-02,6.276001389196982083e-02,3.754513683235407434e-02
-2.504707864245965185e-02,-7.523375831850710738e-02,7.472034893638907459e-03
5.730137296232342206e-03,-1.693762264487152364e-02,3.277308944251559886e-02
6.018052837693234347e-02,-8.234327158826743043e-02,3.091687948990598424e-03
-4.141741892920918627e-03,-9.448341652166790394e-02,2.716732086210493086e-02
5.122058422311747544e-02,-6.619335697248610040e-03,-8.383784593936989549e-02
1.970723713706848748e-02,-3.390984047761120418e-02,-5.493926212573114337e-02
5.255995310741776172e-02,-2.311948416170452048e-02,1.160624681343255631e-02
3.058869463597149035e-02,-2.154911178856097967e-02,-2.796457299384593267e-02
1.073734764816735160e-01,-4.752985958023073221e-02,3.223027219080442513e-02
5.043101770556965291e-02,2.913792450407100276e-02,-6.152040020870459813e-02
3.690701747461543059e-02,-3.378951837324265742e-03,-1.413501607530659628e-02
-5.286280468483884470e-02,1.517243777442161753e-02,-2.493155530617002444e-02
8.088478597417998392e-03,-1.494467039973728728e-03,-3.664195948108523587e-02
7.611522142751646347e-02,-1.380509826038977747e-02,-1.756219711982104706e-02
6.404494235664650280e-03,1.403784085205844571e-02,5.875805740015919987e-02
1.005353922540215203e-02,1.783586934174406086e-02,3.848837870539903450e-02
2.452044992564954978e-02,4.281459086744360959e-02,-4.014083675920369909e-02
-1.135081864783689561e-02,1.536221544446453487e-02,-5.550211078544307897e-02
-5.955605852182124793e-02,-9.520895397700335910e-03,-1.746701033363179043e-02
-5.107122157315205357e-02,1.530680521367307374e-02,-1.406133302744988316e-02
-7.442503560202204382e-02,2.886749046098269905e-02,-1.316856768393650373e-02
3.438792179452287295e-02,4.188487622299529034e-02,6.108774506612216909e-02
-4.453134356958795941e-03,4.953037155277403847e-02,5.754749152983976157e-02
-1.018535757797388829e-02,-3.880781456115053873e-02,3.130185381234242697e-02
-2.814244526750529080e-02,-3.154920529504198073e-02,-1.438900088379715426e-02
4.970506253014152914e-02,-5.608102216300096116e-02,4.807353750396143460e-02
5.413431182480373666e-02,2.434908636089115966e-02,-3.943825238195045046e-02
2.625789921160382595e-02,4.354137577412460491e-02,4.310567222957666089e-02
-8.396149571859594374e-02,1.418051679908664472e-02,-5.012787570187360320e-02
9.789393657650427572e-02,4.913671425947015170e-03,1.060765591162493408e-02
-2.977252796875551680e-02,3.829345091756376860e-03,6.239273357053875223e-03
8.758603605801254521e-02,-1.774698956580900502e-02,4.099579316886094865e-02
4.185629697987860304e-02,-3.689397758565621938e-02,-2.471149438603307408e-02
-4.178871552100784509e-02,-1.102469016227292792e-01,1.874846042444740929e-02
3.213715602073387301e-02,-8.558180644317594371e-03,3.180858147268466468e-02
5.168611169717811891e-03,7.535238528361608290e-02,-8.886404591224419947e-02
1.522280149096911887e-02,-2.728382023752385505e-02,-4.733116452327276041e-02
-7.764620147261537542e-02,5.508194320744978431e-03,-3.144754310422019725e-03
6.163085472025595785e-02,-3.192141448748220950e-02,-1.578373620482696749e-02
-3.571197136926091038e-03,3.216138552528689798e-02,3.394321808280476027e-02
-2.282141663111892857e-02,7.572933599569045549e-02,9.776359801526890089e-03
1.286751595749858861e-02,2.736317442589929205e-02,1.711269306392191117e-02
1.956551288677645106e-02,5.435538605099204251e-02,3.694795213939843642e-02
5.742627356447083803e-02,-1.116464543870343031e-02,4.005166998078485419e-02
1.036084390062214609e-02,3.758059740113616626e-02,4.491065703681706989e-02
4.371741588005540607e-02,-4.093432406025793169e-02,-7.624337219925150788e-02
7.071643831789153033e-03,-1.281852998888613308e-03,7.673028038517227742e-03
4.128653882790285674e-03,4.084039961591036383e-02,-4.576994650989721358e-02
-6.582453076457062124e-02,-7.788018605637085645e-02,2.930575017645152547e-02
-6.395920268451912860e-02,6.166786199904832760e-02,1.160532941301043071e-02
-5.650490455018734176e-02,-4.645818969370985041e-02,-1.511945921771825534e-03
5.526983998517728119e-02,-1.461758396233264930e-02,1.345318421491582817e-02
-2.743011091606118151e-03,7.372419584776292341e-03,-1.713390905274938744e-02
1.071810048568902218e-01,-7.054175472976699501e-02,4.788213508134937790e-02
1.203144510423085310e-02,-2.696999353755014095e-02,-6.090156897575874084e-02
-4.450809913646339155e-03,-1.257232357507797119e-02,1.904056099467653362e-02
2.976950833744069352e-02,-3.804373152327206187e-02,4.429677805818727637e-02
-7.331434879669748717e-02,3.291552809205858937e-02,-4.577135706432011383e-03
-1.995101901274511091e-02,1.814288561568987851e-02,-3.952664251606798768e-02
-1.685688652600983092e-02,-9.205619000000777111e-03,1.548754166051934111e-02
1.610402935915186424e-03,1.877483516903331526e-02,-5.517396769404337917e-03
-5.516779109283088955e-03,1.439994282236546456e-02,8.710058078636737436e-03
-8.079296585152388743e-02,-9.265924665322709808e-02,-3.572950699421440640e-02
-6.427508783546155569e-02,-3.036561599618858853e-02,-6.471452072546181322e-02
9.992596902094953715e-03,-3.178712242454192344e-02,4.977301329989818057e-02
-5.026493045755176664e-02,3.580615460905407083e-02,3.771805827424568568e-03
-3.329638589984386388e-02,2.642195091247245137e-02,-3.714229035761620543e-03
3.891710004346318058e-02,-3.270857521239281529e-02,-6.453701724473035438e-03
4.368185290501793577e-02,9.607469223012904402e-02,-6.968721575152465788e-04
-3.735816738722459729e-02,5.111497121236110303e-02,-3.631666038422651319e-03
9.797910672304278867e-02,1.870106985544230105e-02,2.710878605160610758e-02
3.077331223986477793e-03,-3.422650154974690023e-02,-4.328375248825912236e-02
2.692086975598955226e-02,5.486078302265828821e-02,-8.412637745824647420e-03
1.560983138043550884e-02,4.713666187393109053e-02,4.713805547175945777e-03
-7.727214203559784958e-03,-1.636040816323888758e-03,-1.567690870423667573e-02
-2.242257713381033343e-02,2.498004119379856544e-02,-4.853952224804672193e-03
-3.867425110287372320e-02,-8.902311125300950423e-02,-3.970611818885454170e-02
3.961905728710059943e-02,-2.384291236278618040e-02,1.132489137816344860e-01
-2.606946333406902697e-02,1.248006174464823537e-01,3.264250608762656741e-02
-5.387305749946615790e-02,1.037275721978556525e-01,5.283483857119066103e-03
-3.502283911448970249e-02,-2.042367153293663321e-02,-3.099423354139165324e-02
-3.470115160652399028e-02,2.205915178479575869e-02,6.832343097562189327e-02
3.412861149143648601e-04,-3.874767855238489718e-03,-8.633802992068350529e-03
-3.937995276496619734e-02,-6.370697389055227956e-03,-6.283018714226230872e-02
6.276101523068175654e-04,2.047490568381135634e-02,-1.670366119688583909e-02
4.717549384546009666e-02,-1.782225613693851768e-02,4.687401258141817711e-02
-2.042524863216558378e-02,1.691928693163547923e-02,1.887072795814317624e-02
6.203287558781959109e-03,-6.676866158637413673e-02,2.663183158343081572e-02
4.461358684379719552e-02,-2.444184085597841949e-02,7.193783960996605331e-02
1.786374697839641229e-02,-3.576498617305987060e-02,3.226953010333242361e-02
-8.957089289719095959e-02,-1.705506570404883779e-02,4.957608114377709194e-03
6.519549412930462917e-02,-4.930318269285883029e-03,-3.593555177348391888e-02
5.145019281221048513e-02,-5.061256208945193755e-05,-3.526347651171341663e-02
2.136974483308849357e-02,1.620397545389027846e-02,2.296715101323326333e-02
5.325948422768515822e-02,-3.605965458549496155e-02,1.094657336021866295e-01
5.612323190238034665e-02,6.661445016425429806e-03,-2.880111299996796978e-02
3.114084503358812567e-02,-6.722855986162394604e-02,7.932054201415869588e-02
-3.304958832438677219e-02,6.300855091858678647e-02,-3.830845086444698705e-02
5.813854039073799995e-02,-7.816471473508247725e-02,-3.189899813358081093e-02
-1.491969938823799625e-03,-1.031872076993278591e-02,-2.457978897985535482e-02
1.800201780708782229e-02,-4.078706054526685248e-02,-4.102925976964216098e-02
1.266214240098993173e-02,3.204179904748909180e-02,1.782676509233900239e-02
-4.924592491058382010e-02,-6.822295256847434042e-02,1.081465220354551129e-02
4.182593404206304960e-02,-2.609631311635782214e-02,3.758616454654522144e-03
-7.570618618501086250e-02,9.393764158210135551e-02,-2.779689286073322094e-02
-3.553250255508789979e-02,5.894748550164759932e-02,-7.253912353662697599e-03
-5.856999558146045587e-02,-2.986560658721885628e-02,5.662468575092070855e-02
4.588299283714365046e-02,-1.520325271382910216e-02,-6.669612525751609025e-03
-6.008459891331895120e-02,-7.046873756780737408e-02,6.817500919343716381e-02
-2.348486315770718230e-02,-1.924201455280155626e-02,1.795469701115842741e-03
1.425235302643110269e-02,-4.297266748867353825e-02,5.297720668392091187e-02
4.690526788272508102e-02,-9.452660886749271463e-02,7.024302952332597827e-02
-4.055823810443735106e-02,-1.538849072170817359e-02,3.747801751884035498e-02
3.597147296312607628e-02,-1.700331841738226754e-02,-8.510764247694810325e-02
-1.485723583351188787e-02,1.392809363254955170e-02,-4.991850867904511213e-02
5.429139312041881410e-03,3.606010468936387409e-02,-6.995388065416199841e-02
-5.838158175335145944e-02,-4.180907786583279440e-02,-1.614172313827090879e-02
-5.525814439831626401e-02,5.350191089631484327e-03,-1.486495573199643309e-02
-6.782144234985255926e-02,-4.011606399814737073e-02,5.337694847556942457e-02
-8.778904383797659153e-03,5.500916524735559310e-02,3.817807830757925444e-03
-7.058714062768528530e-02,-8.954570999498362785e-03,6.660419567782097094e-02
-3.454505477237990868e-02,-2.784695393287781040e-02,-5.178271387643098439e-02
-4.076107518151599746e-02,1.868398911857859987e-02,4.527362554028686176e-02
7.490073204568363507e-02,-1.089242430433866836e-02,-5.909337681142511761e-02
-5.952840785882398955e-02,1.457276360405539151e-02,-3.187688106786209369e-02
-5.535852613324965428e-03,1.501086559517799367e-02,-1.361589410131110352e-03
1.396103323318903695e-02,-4.629995833127700106e-02,3.399619624239286989e-04
2.886400158536487487e-02,6.461621905739695082e-02,-1.724901030590779427e-02
1.953932213137020424e-02,-6.772086921250157487e-02,-7.084013123110480259e-02
6.586910837091626558e-02,-9.114227027714319473e-03,3.765224392739796588e-02
3.085941066807828051e-02,1.012678981134139053e-02,1.094946767807559833e-02
3.874581154348204215e-02,5.220170593065505404e-02,-4.354360000721183011e-02
1.470199022232438271e-02,-1.921814375297384997e-02,4.056785234020106323e-02
6.488036587711626391e-02,2.757327000146199067e-02,-1.660785975133597867e-02
-1.712931101691737151e-02,2.921256829047126288e-02,-4.483344799410388798e-03
5.860278995407311063e-04,1.692695690641298845e-03,3.365199677642801562e-02
-3.669498450551494234e-02,3.181780362265957188e-03,-4.662990815904276970e-02
-1.204229889690970889e-01,-8.953956554147941838e-03,-3.866894370183283219e-02
2.674160499490733575e-02,-5.227898168836693504e-02,-4.943663753197872351e-02
5.123227808591321319e-02,-1.994740833342834724e-02,-5.102223187805582372e-02
-6.955667973002347543e-03,4.080091382254644877e-02,6.310796883174633713e-03
2.729813370616029564e-02,-4.567566323993029788e-03,3.669409972740715620e-02
1.088484673151321747e-01,-1.797428477036609740e-02,5.652577989200230357e-02
-4.159629777870682554e-02,3.376735068204838458e-02,6.404123727506902397e-02
-9.406416829543672378e-03,-5.569139684465932577e-02,-3.484343229813744412e-03
8.239699421327699447e-02,1.210677968948867256e-02,-5.867398259449934511e-02
5.447221675244025285e-02,1.292154120060395352e-02,1.291128100153385132e-02
-1.129296379873475642e-01,3.041664281188250548e-03,1.711707774532140319e-02
2.757035751509904001e-02,-2.870920699835310258e-02,-1.104042650966560735e-02
-4.640670010476379698e-02,-4.134646684556016888e-02,7.357960280208309875e-03
-5.523897230107806949e-02,4.908635590840764590e-02,-8.633213290982901661e-03
-7.038696080188656945e-02,-1.540874550718915846e-02,2.748774488174278441e-02
-2.246949040499233649e-02,-9.259389743868393086e-02,7.825813855012447862e-02
1.649623499736905391e-02,-1.348994162201209816e-02,-3.495625751891567878e-02
3.207559817871542818e-02,-4.094111770958679120e-02,-8.541823060284834887e-03
-3.068935698056914074e-02,-6.345343872069732216e-02,3.712573856961012830e-03
2.555083647170360711e-02,1.889429860463759728e-02,2.595232559117308102e-02
-3.712039017107873068e-02,-8.520926919884948270e-02,-8.238294535593287948e-02
-1.787953588899969179e-02,2.333845425548513805e-02,1.109771168618048191e-02
6.536915163843814991e-02,-8.921021831268369229e-02,4.917693857962682907e-02
-3.918906467944559963e-02,-7.447046547694415042e-02,-1.546985886100250493e-02
-8.599543289601335391e-03,9.935131967719224022e-03,1.166917779807556503e-02
6.543855822556254864e-02,-4.498712035179833202e-02,-8.864234671225246220e-02
6.550679876196043028e-03,7.060305077769343275e-03,-1.276601004059156781e-02
-8.814943214165184282e-03,2.062911003043753702e-02,7.803117021278583101e-03
8.392924009557740928e-02,3.887208977572022273e-02,-4.189539414847323097e-03
6.798239633677550728e-03,-6.014879157734215331e-03,-8.052612282638212104e-02
3.985557778762038178e-02,6.313667427849800097e-03,-1.337887151765679815e-02
-3.206014304019409039e-02,9.220218407716446185e-02,-2.140066524291642930e-02
1.516610071054615844e-02,-5.678784155609837431e-02,3.840976583796491123e-02
-8.435808931153908037e-04,-4.576165303516320504e-02,-3.189006656434065917e-02
3.339622494387264884e-02,4.629268198400898759e-02,4.742327909881975667e-02
-1.951881012632186718e-02,2.317793373996862236e-02,4.143491857062646389e-02
4.725894958600514867e-02,5.571088897447959778e-03,-5.988287363044844311e-03
-1.977979269271840437e-02,-5.416259722756573691e-02,3.342409268765584446e-02
1.141436924547657543e-02,-3.488523368247575113e-02,-2.249934554420781468e-02
1.608646857516010664e-02,2.191771440196417509e-02,-7.445342911150552856e-02
5.530847759197330543e-02,5.165976582552796181e-02,-3.475024791144640246e-02
-2.558155996191177964e-02,-1.500400812285604705e-03,-1.299279725341817050e-02
-2.796641579250348786e-02,-1.294973456600721426e-02,-3.846656280945844747e-02
-2.042847176639257453e-02,-1.345883326299067775e-02,2.168747489112561946e-02
-3.167317975812174169e-02,-2.262971760305835557e-03,2.156055017522237258e-02
-3.222987705537463249e-02,-9.241980757940511382e-02,-2.062875356529386429e-05
1.062264904667568760e-01,2.717585540731012883e-02,-6.878401180300362794e-02
4.559787606318276010e-02,-8.922661673210505184e-02,-2.111668979837896462e-02
3.452564657213380572e-02,-4.898705684078957789e-02,-1.820368992917205039e-02
7.250475584622191952e-03,2.638651075745055211e-02,-4.907604221635245012e-02
1.830191239472154022e-02,-6.961180472962420762e-02,3.826240622206978498e-02
2.073429547165910134e-03,-4.802385070964718117e-02,-4.553114452282901875e-02
-7.270163037402242734e-02,1.064140960133371297e-02,1.653496501151027059e-02
-2.952323202750838441e-02,-3.591119743759519506e-03,4.103323284737792759e-02
9.221625070885075548e-02,-5.319480317379170209e-02,3.467262758129695255e-02
-3.708137599783320471e-02,-9.615200258642656733e-03,-7.143587803426780514e-02
-1.217806032739469219e-01,-2.021718147216334388e-02,3.141566075602734986e-02
3.253629622997962489e-02,2.447891533713499740e-02,-6.139061456288446433e-02
4.584115279372996676e-02,1.965904629086691249e-03,-5.605882135615191525e-02
-3.707607686586698176e-02,-1.038800321707095825e-01,3.474062026046804454e-03
4.482023692340347115e-02,6.897515144629939865e-02,-7.100602925797243337e-02
-4.245195460529994219e-02,1.361379738908606932e-02,9.894035026535635477e-03
-1.811583656591376698e-02,-6.835211629019866467e-03,-7.924219841204058201e-02
2.674843646772753075e-02,3.228281252977789617e-02,-4.574978531318951713e-02
7.013490522825899590e-03,-1.570965881423474694e-02,-4.758514960503101854e-02
7.752741044050123417e-03,-2.969850088550625780e-02,3.567295444211538574e-02
-4.000507403112474325e-02,-2.186020855479835212e-02,-1.056682604876663517e-01
-2.774015267986915806e-02,1.282605967497894156e-02,-1.442166698984365114e-03
-2.289551073509384777e-02,5.093524631704735017e-02,-4.897803113316272910e-02
3.610213189214252216e-02,8.524927566756326791e-02,-3.081170062070605689e-02
-7.052761304350334270e-02,-2.401514480897898318e-02,-1.871710844879992050e-02
-4.618490331806064664e-02,1.267895214856567566e-02,-4.021088183582501724e-02
2.349502183289048016e-02,6.108426067315288199e-02,6.575948207706058812e-02
3.664416497747903512e-02,-2.488034581725462671e-02,1.037013530078692049e-02
2.050601270439807514e-02,-5.801851735118349757e-02,9.149573836223169956e-03
6.950347396349236540e-02,-1.543527202781634980e-02,-6.538025314479577188e-02
4.244019190986784464e-03,1.385623924433799885e-02,4.758252003633511168e-02
-4.333474987250025140e-02,3.909762936530213756e-02,1.564077004559161557e-02
1.118214792555769083e-01,-7.363671283050320093e-02,-2.664214275002337561e-03
-4.508575905105689091e-02,-3.484617914855509674e-02,-2.585649263170218667e-04
1.159821099741645788e-02,-1.563567800991472450e-03,-2.280269650751959309e-02
-1.256882390675167008e-02,7.217379447638622159e-02,2.079002493529233386e-02
3.478933242772021261e-02,4.172581789454748308e-02,-3.997786164638816864e-02
2.512334234788004064e-02,-2.469755613110243692e-02,6.221043645551346812e-02
-2.467653442977258815e-03,-9.165260597023582034e-02,2.162830908275488115e-02
4.689027160314682835e-02,9.933528052289391629e-04,5.790193976686177496e-02
2.670407248173307935e-02,-1.067362524354400002e-02,5.766691874218407565e-02
4.127670700771847445e-02,-2.977195653885712431e-02,-3.188981261481993457e-02
-8.123574421049771510e-02,9.662227077564689709e-03,-2.948544860445168406e-02
3.501504431619161667e-02,1.098863719982145909e-01,-5.451590666660378198e-02
-3.022509406965013384e-02,1.157655992068272188e-01,6.156653515548496380e-02
-4.144106745208706206e-03,-9.808814421980040221e-03,-1.620743100337268539e-02
-1.176991993825093029e-02,4.917624405357522849e-02,-1.889233324901730057e-02
3.101285722482262017e-02,-4.103268312468976581e-02,-7.633170926407277512e-02
-3.832528846591065456e-03,-5.050335983894788106e-03,-3.816484246381984455e-03
5.646291787598808204e-02,-7.365755259264711308e-02,-4.956330486677725661e-02
3.448584764581188317e-02,1.998904146957520764e-02,-2.259923936630639507e-02
-4.263518323105371793e-02,3.952349151819394696e-02,4.171623666036603645e-03
1.001447460778698839e-01,-8.323986498668880726e-03,5.477577464572496975e-04
6.148029649388651180e-02,-3.910521297702632820e-02,-9.335620941565024589e-02
-1.654634653075669204e-02,2.064182849181179222e-04,-4.181895349202811168e-02
-1.174104874252146144e-02,9.233028044521343972e-03,-4.936916994804297493e-03
-5.660616559640645890e-02,-3.250656074138560947e-02,-2.555768030427137474e-02
-2.846965701311572616e-02,-5.434797101959608356e-02,6.181926272660854399e-02
6.683521228945982218e-02,-3.030931836167565646e-02,-9.038888067179545044e-03
-8.338114586778293258e-03,2.529867474176879585e-02,4.211505803117274551e-04
1.133846731636029416e-04,-6.179524223660171588e-03,-1.359284334152989666e-02
5.768672015103130934e-02,-3.632387308159217010e-02,-2.035885834573229053e-02
7.814645396170180613e-02,4.597335584548786769e-02,7.128542643841572803e-03
5.800983481062969155e-02,5.074736152593413430e-02,3.160795647437519493e-03
4.584275808112799055e-02,-9.360589806003249969e-02,-2.533961916501271949e-02
2.903958728371094228e-02,-6.274289396349957970e-02,-8.813373986424727358e-02
8.367837248135830130e-02,6.251427687265790657e-03,-3.777753358587006456e-03
1.201278634704315389e-02,-4.880766242378053316e-02,1.154358478058391951e-02
-9.748346123977921426e-03,4.805418505850512362e-02,-1.436433121987277031e-02
-1.430509293254199864e-02,-1.211875021794616564e-02,5.339781769862442934e-02
1.260742770773506070e-02,2.601594513155595575e-02,-3.286183110431969284e-02
4.679009685797573537e-02,4.740993110347398870e-02,2.219567967936263847e-02
-3.694857246154202232e-03,-7.023299520370053506e-02,-2.620758264084124302e-03
5.429051986735396879e-02,-1.406623724865559664e-02,2.328864764189075842e-02
9.068592553565354986e-02,-6.602693407308559900e-03,7.690120092602628632e-03
-2.181145138436560438e-02,-1.607167528027265979e-02,4.889335319009425335e-02
-4.476504871244027517e-02,1.097154469609581823e-01,-3.999320728780269424e-02
8.895505804115376447e-03,-3.640308024679140414e-02,6.048292795339703376e-02
3.316558648852949154e-02,-4.795008753378086387e-03,-1.560728628990017304e-02
1.544890846686032201e-02,4.131263842247191037e-02,-8.351878145495508082e-03
-1.577641869799306304e-02,-8.877918740597662284e-02,-1.779592977920776975e-02
-4.023196138651372218e-03,-8.049064382439825860e-02,1.010462401831239629e-02
3.987934415424869428e-02,-1.188753499183004859e-02,1.006285807035268119e-02
2.555774018224726829e-02,-2.019134166505787489e-02,-4.930427439155271596e-02
-3.005343313639250238e-02,1.129525721427667752e-02,-4.042101191892830125e-02
2.848794109742709690e-02,-2.388364051781344602e-02,-3.791808445604528954e-02
8.233176565122403423e-02,-1.025600188612552088e-02,9.949398371318197987e-02
5.215709245162365726e-02,3.394351198608980703e-03,2.095537671715637720e-02
2.996406922873688303e-02,-4.032455144010924780e-02,2.626157001545986053e-02
-9.043951103115310808e-02,5.803655765281520024e-02,-1.182759250098140529e-02
3.622460823878196484e-02,1.659296761387259872e-02,-1.018134770119819565e-01
2.356860184041804571e-02,-1.180867952121959427e-02,1.352911324920919034e-02
4.109853815565706753e-02,-4.714694563925295873e-02,4.138653963022080606e-02
-2.331093845390565245e-02,7.269100031337275350e-03,7.074340281704179223e-03
-2.835871993879606010e-03,-3.802491012275865511e-03,6.554366103431598367e-02
7.961942568958722821e-02,1.760410078811554951e-02,-3.731337410365090368e-02
2.757217582329867314e-02,-6.908063469274644541e-02,-7.827346688142519660e-02
-1.149987823716867516e-02,1.922038153230416074e-02,4.562910158803862304e-02
-2.142207475592438834e-02,-3.096459182798757398e-02,2.523639638772880861e-02
1.230110270995113386e-02,-5.041754198019248595e-02,1.439713348961639376e-02
-3.240709168447365729e-02,-9.695676933000852218e-03,3.129035579384915194e-02
2.916686388333551705e-02,-2.797029102432367978e-02,-3.603391384732130415e-02
4.362247261828636202e-02,1.162904677740463598e-02,5.944830609591033460e-02
5.566507527173771702e-02,1.671256411181201371e-02,9.491787825689204303e-03
2.044931568514804163e-02,1.721837916298542964e-02,-5.479091473175166926e-02
-1.866656831641473092e-03,-6.859117706244223511e-02,7.131531080999681661e-05
4.932795855671006507e-02,3.060974241946980839e-02,-1.297782972693760882e-02
7.576841973230848300e-03,4.595076542076856341e-02,1.383332247296245252e-02
5.946922701169492925e-02,3.483209959375754838e-02,-5.101014686130688619e-02
-7.575197182874466965e-03,-1.993958902103471625e-02,-2.301820664549595816e-02
4.646160349888594360e-02,1.984713672156693601e-02,-5.634945090685851421e-02
-1.326287849758538313e-02,1.548905704416795020e-03,-1.602571523139843107e-02
-6.950082766668307099e-02,6.552668626311504430e-02,6.194587216963389625e-02
-3.475803493024334431e-03,-4.419966243511689111e-04,5.229174701277971432e-02
-4.488630152733622675e-02,-3.055736304991137423e-02,-5.198063090391823182e-02
3.212593115116831738e-02,-3.902288438294750778e-02,-1.285998246598039074e-01
-1.847139782506167921e-02,3.742531774840730796e-02,1.615234726232306003e-02
8.151302000617892396e-02,1.115095594717344140e-03,1.624978053694501115e-02
-2.579555297833513797e-02,-1.998921735717903991e-03,1.847751866238463159e-02
2.167236025251704362e-02,8.180766083320724358e-02,-5.228178023903641558e-02
-1.018342614903952961e-02,-6.073111873869146277e-02,4.617738852548716744e-02
5.104561492519380655e-02,-6.945055247923078226e-03,-2.674053139417469777e-03
2.380639942288143712e-02,4.203915155441233231e-02,3.311487758672920084e-02
4.608076890806205722e-02,3.893931755966954789e-02,6.692196445100383195e-02
-7.222873784181349510e-02,5.412233259326712509e-02,-3.065928946181100886e-02
-2.614331873124012620e-02,6.085189544077587200e-03,7.935724195358213884e-02
-5.668825663670066378e-02,-3.471415934675630560e-02,-5.126351608608919336e-02
6.793665718520527919e-02,-1.790441991528809312e-02,5.013229802125288709e-02
-7.173961610004696288e-02,-5.549730245175330673e-02,3.842076268916824050e-02
1.661487745462733936e-02,-5.499974726041074839e-03,3.478250575643258846e-02
-2.456219699019993041e-02,4.771429726214508615e-02,3.116518782523879094e-02
1.563605222719452112e-02,-2.582808674414825006e-02,7.928231815632720558e-02
6.488331952012307488e-03,-4.633946728972003493e-02,-3.915397895761062869e-02
6.754610095078079912e-02,7.368064725441042517e-02,2.080960170401420159e-02
3.792582182790357748e-02,-1.490885527238332807e-03,-2.800239292667345073e-02
3.324183714217463642e-02,6.399646033675188139e-02,1.605037043469693600e-02
-3.352552003688812066e-02,-1.043938149154040040e-01,-8.567341436233192817e-03
7.202645842691982048e-02,-9.149804481800713138e-03,-8.476479875407715026e-02
-1.622524130128616621e-03,4.869241706134425085e-02,1.220270883805577022e-02
-1.170964151124566886e-02,2.553079898034970804e-02,4.393646957674125775e-02
6.672493983498796466e-02,4.337783933697846039e-02,1.237555549742212421e-02
1.486087661494944756e-02,-2.496636320718452137e-02,-4.447293478480932732e-02
4.502708135788888177e-02,2.156887022215823319e-02,-7.981411321450280344e-03
4.383003833031152291e-02,9.207714295516441702e-03,-3.218053835184284811e-02
9.116883117382245522e-03,-4.084157740699492084e-02,8.382082653870223665e-02
5.541648739201548990e-02,1.300859443710703466e-02,7.103423791556978673e-02
-3.612833172003019656e-03,1.354806619772648199e-02,5.161162857255092822e-03
5.951447597240855369e-02,4.025493882017023434e-03,4.304202383626835882e-02
-1.358063152050598956e-03,-8.759915297107730148e-02,-3.091853195955809180e-02
-7.779045653630570212e-02,-1.285489485314724595e-02,4.974015726205826410e-02
-3.314925685092376395e-02,-5.286183495936514626e-02,-8.408961725040188864e-03
-4.755195682995976697e-02,-4.067925283353203414e-02,4.068753997486809770e-02
2.869107442413782599e-02,-2.830803498424056333e-02,-5.915412988872312261e-02
-2.670281545882911833e-02,-2.510186586377815415e-02,8.956564877066889360e-04
9.216664650819676426e-04,5.332020713407222869e-03,-1.111467583761228950e-02
2.157623805560417857e-02,3.174388895678752209e-02,-2.706173017214083196e-02
9.508187615474138210e-02,-2.482510545100033439e-02,3.830225998559889239e-02
5.448505446495482268e-03,-2.353306825911974029e-02,-2.933881140772711532e-02
-2.797944919012102655e-02,5.023980191690831550e-03,-3.720336827680423286e-02
-1.036960410331833060e-02,8.656580001543522779e-03,-1.578402131895122879e-03
-3.875940467389091953e-02,3.075164730110648698e-02,-5.614602570223724146e-04
1.209297870735788483e-02,-3.011901015481692478e-02,7.495504139333215854e-02
5.080625971573286825e-02,3.167481547334242802e-03,-3.945960731620890699e-02
-7.292659589497288430e-02,5.563456942343734946e-02,-8.290206961077493941e-02
-2.246371260015301782e-02,2.431335119503352099e-02,-3.397188032593803642e-02
-3.284781530606744465e-02,4.818700106489744867e-02,-1.960402961193955657e-02
2.565259650591066379e-02,5.153697255030034730e-02,6.604141935910445849e-02
2.366118096780338038e-03,-8.354494082259010523e-02,-6.974856320126260334e-02
1.668080664531429447e-02,-1.792578475064627631e-04,-3.082735496744347121e-03
-1.064158858569361384e-02,8.441390435974452378e-02,-7.116152711005128972e-02
5.682165543371805322e-02,-3.546333815667954831e-02,1.847148063555012834e-02
8.320761538382452638e-02,6.540405274035557270e-02,-3.790212944118231259e-02
-4.214096397043156500e-02,7.041794583862411028e-02,1.794757102749794733e-02
4.928650021062429276e-02,1.109707406328746399e-01,1.448552019806917390e-02
4.385346581933545484e-02,-8.979570509683877655e-03,2.864584711952774740e-02
1.871348753192487004e-03,4.213528908800026791e-03,-6.838737539293186785e-02
-8.104307189205589568e-02,-5.080880477933864825e-02,-1.538808142872505162e-02
1.475569962978516732e-03,-4.657649274434747660e-02,5.385668695406522349e-02
5.493977563391027122e-03,1.615068211184733996e-02,2.690267996285241811e-02
-1.151340182196724203e-02,-4.901867365868880361e-02,-4.807427659872744521e-03
2.191040234603180634e-02,8.808503229744538143e-02,4.022211403946231861e-03
2.167048686958096548e-02,-1.585807355666400340e-02,-6.147048950870293710e-02
-6.556964947876592342e-02,3.462612226107592700e-02,-8.568635241558722471e-03
-6.249238346476615469e-02,-3.608398923450689688e-02,6.166665874815883269e-02
-5.217091535413651004e-02,-4.754170729929201727e-02,1.362200986565257829e-02
-3.170938244037267012e-02,8.430911667310959229e-03,6.014494108711583575e-02
-9.190694435617876093e-03,4.230733799769302583e-02,-7.596308113830575748e-02
4.835537498523179850e-02,-3.926619381790412769e-03,3.510336097833064752e-03
-1.343797397896722735e-02,1.299239906587297631e-03,5.116681671503102435e-02
-2.841514452100863536e-03,6.259507939066608073e-02,-1.530672880460274762e-02
5.236641177782935287e-03,2.231242937152583608e-02,3.772490955829768677e-02
4.093283054396624761e-04,-4.511984731896147294e-02,2.117113645083341239e-02
-9.272746567212933333e-02,1.262553903139376210e-01,3.446465782777140274e-02
1.076653267242180662e-01,-2.092683326669692728e-02,3.211698610506834306e-02
6.368981922461057488e-02,6.208590488506501685e-03,-1.225754487993481467e-02
5.782281465359032785e-03,5.007593000338402683e-02,3.500497885141468091e-02
9.487618161027958075e-02,5.894055476055403558e-02,1.695559144053558967e-02
-2.399471949168723722e-02,4.771060708017971913e-02,8.655236597763908690e-02
5.236398208184038505e-02,1.661710630790161347e-02,5.621629515074493683e-02
-4.248651962609623772e-02,5.010183306666097375e-02,9.603073265555357729e-02
-5.476383658007766796e-03,-4.515012310715688787e-02,2.646806016289536198e-02
-7.234691859577431494e-02,7.502995164943814833e-03,-3.546494460776804161e-03
1.174434754071351228e-01,1.519000298100943273e-02,-7.278070666152069990e-02
-1.657628679130478599e-03,4.279086731221203033e-02,-7.937512208308349082e-02
5.561783747291784014e-02,-5.458514339446907809e-02,7.512303098373429577e-02
-4.138081543664929446e-02,-3.977869993269619875e-02,-5.899552641070093806e-02
-6.477410782982756521e-02,4.391677637978388948e-02,5.002175855416779275e-03
4.905014518475386137e-02,2.605910619130482470e-02,-2.065768018609418985e-02
-2.231217961294910956e-02,-4.791704811918776064e-02,1.946835094981107933e-02
-2.495663813054741983e-02,5.702684555726036768e-03,-9.176850976935402651e-03
-5.097350882363230196e-02,3.810244339138166292e-03,3.913359156183707221e-02
4.363905079715419549e-02,-5.696422513031282331e-02,3.504008611451591565e-02
1.539157092531448848e-02,-7.716615226317898903e-03,3.015988421707799239e-02
8.438865159022599163e-03,-1.582868659255702928e-02,-1.334940754409213136e-02
1.931608041035531549e-03,-5.754790863705422366e-03,-2.996426755283231394e-02
4.861174201001695200e-02,-6.322468011880524874e-02,2.885277672628088971e-02
-2.783530516421847678e-02,5.312938887077811589e-02,-5.167188810423684747e-02
-1.153948565014407783e-02,-9.236595504723520145e-03,3.276142798236462289e-03
3.318051135130950079e-03,1.015945640011978353e-02,3.785952271827008886e-02
1.157499367139126940e-02,-4.848699450897501345e-02,1.191388801401260106e-02
-3.224967199487102643e-02,-3.935256986453288669e-03,5.024854664942342286e-02
4.164798841210915099e-03,8.936370534670733806e-03,4.649694686384673453e-02
4.530125428004726229e-02,-3.860776101415525075e-02,-6.451538547501700811e-03
-4.720819430956160745e-02,-2.256618589383124762e-02,6.422265967077482596e-02
-6.100313150905609799e-02,7.648178332378208211e-02,-1.325155157565232125e-02
4.237371723391315098e-02,-7.390187111704829559e-02,-8.047984882333936163e-03
1.163455857161887624e-01,-2.122660310167731601e-02,3.144161729270538580e-02
-3.402774388027190317e-02,-3.804121060310240027e-02,1.010217630483631890e-01
-4.168223405995883507e-02,-5.703536292726879564e-02,-4.835193963484459012e-02
2.454810875778412615e-02,1.554493068620074921e-02,-3.249462634484782259e-02
9.362862825349187179e-02,6.842389541975836542e-02,2.243930847947324045e-02
-4.757261334885869164e-02,-2.282821658874589147e-04,5.238869608484318652e-02
1.869341198861986311e-02,-3.546014617811892033e-02,-6.498610270011094536e-02
1.803179283419897166e-02,-1.210501887759699371e-02,2.759920421905568896e-02
-3.465841731933398673e-02,-1.576281776123628423e-02,-2.965482207483683200e-02
7.518970505993986114e-03,1.468574495447408021e-02,-3.988141391086896977e-03
-3.573243423038002103e-02,7.565752484375964058e-03,-4.453765509233434394e-02
4.007085592675901226e-02,1.975944433826297073e-02,-1.574823236131213389e-02
5.747753119504496466e-02,-5.319831781203850085e-02,-3.112533642695897163e-02
-2.155490851728731824e-02,-3.039719196434478160e-02,-2.280069457034209976e-02
-3.496652270500726772e-02,-6.775183915679985902e-02,-3.121336177630089359e-02
5.442105063786962377e-02,-3.696260895982161898e-02,9.492318450511962047e-02
-2.537031386096065544e-02,3.157329469428656749e-02,-3.358231297724322689e-02
-6.917365221776311524e-02,-2.402227789796041596e-02,2.303649360750630037e-02
-2.212188483331666358e-02,-5.211502540562296809e-02,-3.199374927020810777e-02
4.593745992514519649e-02,-3.819001186991238112e-02,4.144389124548742559e-02
5.086695936900726940e-04,1.828371826519559207e-02,1.089772220862314338e-02
2.990676966201875203e-02,5.817198150346449687e-02,-3.337200918051520110e-02
-4.769977002690974771e-02,2.176589613523030597e-02,2.391764048222745891e-03
-2.416590233437438187e-02,-1.159562009337346971e-04,-4.902880297844015856e-02
-4.584294452182251928e-02,-3.057493424166092891e-02,-5.464768384628385101e-02
2.752669994884444481e-03,-1.697824889527949771e-02,-3.654602832960199797e-03
4.238217527978853372e-02,-1.672404885938777452e-02,-2.131197997650325845e-02
-2.108830907246772926e-02,-3.240171183240326408e-02,-2.439270669100171429e-03
-1.514674301506857871e-04,-2.090269422027511009e-02,-3.188706777276510695e-02
-3.103554571242763717e-03,9.110298471697758941e-04,4.147634914382943710e-02
-1.133823851173278163e-02,3.452381538497477538e-03,-1.048727781167174862e-02
-7.015471015708742153e-02,-2.904727237041745264e-02,4.095681106827232104e-02
-1.885146062758071006e-02,1.843418877711975809e-02,5.186800277525006886e-02
1.118821457028868066e-01,-7.683412464722015611e-02,-6.321404438329602735e-03
2.477324006410054624e-02,1.399848788124694564e-02,-6.776642486177450464e-02
-5.053051008714368186e-02,5.413351389879908493e-02,4.722916852570153284e-02
3.475002137843132000e-02,-6.860782823636416179e-03,2.470385526066784868e-02
-3.835324958434446589e-03,-3.433291531024716681e-02,4.136754829524687954e-02
5.961760896789792402e-02,-2.140066466719704741e-02,4.638061553145302746e-02
-4.678364268617009672e-03,3.494959361876718434e-02,-1.413176644279802441e-02
-4.750274112966128975e-02,-2.088945579725746959e-02,2.230093584548489133e-02
2.848656371846139054e-02,-3.197588114328668574e-02,-1.107579550169560979e-02
2.991529512858826304e-02,2.205433374637045044e-02,-5.915175893974627258e-02
-1.587463000095162488e-02,5.075390080556221872e-02,-4.019837061000238604e-02
4.384375093061622375e-02,-1.873795068234297007e-02,6.867279251407029661e-02
-1.457188593517176091e-02,-2.316296019670285519e-02,-2.266709060510506066e-02
6.007369844629645989e-02,1.851862227187439300e-02,-1.286462447754262856e-02
-8.363106579138011865e-02,1.406746769330470548e-02,2.063708008866764129e-02
7.425387553806510506e-03,1.825675000108997357e-03,9.176951566191074092e-03
4.186187942258948191e-02,-2.913021957776310011e-02,-1.394950127889265333e-02
-8.611607648786488364e-03,5.891010301941110479e-03,-1.237048003199994195e-01
1.628912015348415315e-02,-1.711569445957229416e-02,1.941556829105613169e-02
1.530945958837907211e-02,-5.242709266866701218e-02,1.098756326579752342e-02
-8.832589464200385487e-02,-1.315003992549641960e-02,3.618827211367769969e-02
1.697225908869129385e-02,4.922603299256626819e-02,-2.630434137340124934e-02
5.818578041580548671e-02,-3.381373068085141709e-02,1.264091669954503722e-03
-1.341562487862186029e-02,-4.575172164916512484e-03,3.612825606886178875e-02
3.343646568228660076e-02,7.512194485445027048e-02,-7.993769006307832603e-02
1.743220652224464554e-02,2.255638810515065221e-02,5.534478090659113864e-02
-5.158451106061994786e-03,4.871509871049908846e-02,1.383933958851392247e-02
3.357077987600838587e-02,-5.175470104719218090e-02,-3.249283209623837765e-02
5.408694552893481000e-02,2.314116525797955612e-02,-6.218562220555948900e-02
-1.986092524594033903e-02,2.134228256385456088e-02,1.261306478016650280e-02
6.787618082989337054e-02,-8.429969097067365261e-04,-1.569713440932582124e-02
-1.951882855612082496e-02,-3.957075729188355012e-02,4.199448476300209065e-03
1.318460698818814114e-01,-8.463643959157769736e-02,5.513010482928943495e-02
1.719528938705978949e-03,-2.066952312049840854e-02,7.831837554042872518e-02
1.272665395664637593e-02,-4.451394211177061092e-03,2.740698088257247436e-02
4.489473230124847031e-02,-3.656292071003220453e-03,-9.919581176071643608e-03
-1.892089168974029007e-03,-6.700802452636191175e-03,1.957450233773686682e-02
2.826275422348926980e-02,-4.983725265967973821e-04,3.582898475466592819e-02
8.733784414572193233e-02,1.358555244317205535e-02,-2.270348626106451217e-02
-6.817094607947243000e-03,3.233365720350329237e-02,2.864714322719631376e-02
3.536501204561611628e-04,-4.625250714541741942e-02,-3.928319176776610966e-02
1.153185734961129430e-02,5.861050715689133245e-02,-4.505585858028206270e-02
3.304728941905393097e-02,9.628303445511346426e-02,-3.807309449420672592e-02
1.022470712670294282e-02,-5.023920911557123482e-03,-6.607457066280761349e-02
-1.756323302545619372e-02,-2.692860828987576893e-02,6.829866408993258420e-02
-6.585888016820859447e-02,-6.187493406125149642e-02,-3.599662562282344991e-02
5.163533799899543142e-02,-8.345133090273749651e-03,4.569193812517771680e-02
3.662801611405773483e-02,-1.636131620167891043e-02,-4.604383764772224108e-02
5.092328702385138899e-03,1.022075827177002481e-02,4.800370300655120576e-02
6.206423797978506685e-02,2.391812332642520231e-02,-5.796310267622873345e-03
8.214489760129863039e-02,-5.138012338096943632e-03,-6.007427325710831649e-03
1.412953730392124962e-01,1.189194925127680033e-02,2.900586507430124444e-02
5.450020301061918315e-02,1.419203149024782923e-02,8.098488950522919616e-02
9.392689331325582494e-04,-3.692983585682817899e-02,3.816559259624971445e-02
-2.964060792804618441e-02,-1.986235143823745705e-02,-7.595759354014953741e-04
-1.661099138080317575e-02,9.575418577609637674e-03,1.949265552697546089e-02
3.455264970014288069e-03,-1.320320593561765538e-02,2.951453831927998775e-02
1.761374651698523544e-02,-3.846367792433003779e-02,3.632340277017570562e-02
1.920473295854098136e-02,1.541897430579397543e-02,-1.900625502246532442e-02
4.892558489340933202e-03,-2.555035155132014818e-02,-4.854403129925092403e-02
2.006860136553917373e-02,7.790958886652357392e-04,1.101993593127704833e-02
-3.925464813357125438e-02,-4.962757573035121023e-03,-1.984715102318219959e-02
1.412312970126781801e-02,-3.887614598210463457e-02,5.392592519532437775e-03
2.626364779373792369e-02,-5.578922001639862599e-02,2.778821804654687394e-02
8.301059468475225148e-03,5.361534501634223487e-02,-4.840569943207035514e-02
-7.938539580266559814e-02,2.551091871521789581e-02,-1.272298900630795121e-02
-6.985292190379975390e-03,-3.023654488508361812e-02,4.369112656728312699e-02
-1.131971867852479482e-02,-9.534172031739535091e-02,1.853012754759926842e-02
-2.346453698573833235e-02,4.175622855153469232e-02,1.605562427727073860e-02
2.385086722854522570e-03,-2.919271704157089947e-02,-8.735769229844267403e-02
4.254730806100292390e-02,1.681329675942696850e-03,-3.624886381054740619e-02
-2.075814677236244646e-02,7.451688650696795639e-03,7.936795198407385621e-02
-3.693727887033675106e-02,-3.418956629057201633e-03,3.656251297368181413e-02
2.757262148908895191e-02,-4.114080548216806493e-02,-3.473942868710080262e-02
-2.284470592751591117e-02,8.141330409228571263e-02,3.669191060500471419e-03
1.686172663442342835e-03,1.562090225685726363e-02,-1.098779518596135069e-01
-4.892039769498700980e-02,3.559506040476549671e-02,4.430671526217738743e-02
-3.362917145090674881e-02,4.585870929318133088e-02,7.127719611237510718e-04
1.897664656244986425e-02,-5.093351267698128376e-02,-1.560784251765756463e-02
9.407050991049717426e-02,-4.295915878808518468e-02,1.057286766230417299e-02
-1.477818385200222948e-02,-3.098704283091980715e-04,2.328937185013236696e-02
1.289658132111522366e-02,5.317241034518945669e-02,-6.682342796510538918e-02
-4.199091209399315877e-02,2.570018304463330891e-02,-2.270456025376065001e-02
-1.853462828587019995e-02,-2.854148370324318014e-03,7.649482229493728691e-02
1.012562577326893941e-02,-2.662017157116276789e-02,6.203199228399174786e-02
-2.596365587910024614e-02,1.848761746380971115e-03,1.451420155642066737e-02
2.454095596108549562e-02,-8.254627980147579910e-03,6.609958840745627784e-02
-4.272201134526702054e-03,-1.004935582210474652e-02,-2.492033411825934561e-02
-5.540186745254378070e-02,-1.347080898516921088e-02,3.235070211892611403e-02
-4.571341400635756808e-02,3.196093208793446966e-02,3.693043961661848090e-02
1.629852688106776804e-02,-1.916676885819423512e-02,-6.531796678430232261e-02
-5.076116536538890014e-03,-1.865493348782835265e-02,-1.024616872896142450e-01
3.196598747500556392e-02,-1.106561245427459261e-01,3.940302307874884308e-02
1.107888714596826224e-01,5.794913098549703614e-03,5.227812764404627527e-02
-8.722113365859553158e-02,-8.936233439830470679e-03,3.144947285203336662e-02
-3.262215353494262587e-02,-1.728552044942161664e-02,7.979141052685975732e-03
-1.547345830213217067e-02,3.136519924145447780e-02,2.015492689996913750e-02
-4.458528464833702576e-03,5.280530517113864869e-02,-5.184143453256439757e-03
4.503096030517688558e-02,1.921014250033827378e-02,5.079851267390788488e-02
-4.318892849607489787e-02,2.386362322679710241e-02,-5.251123865137329039e-02
-6.652068910669436258e-03,-3.888185882607327060e-02,2.755640009449111805e-02
2.102292646656594641e-02,5.204287823062755947e-02,-2.848289981428052398e-02
-5.121631442571464993e-02,-9.960668053097284161e-03,-3.655099663299977292e-02
-5.737898481428138631e-02,-8.649613877450905777e-03,4.200341017046521110e-03
3.390545182225434412e-03,2.316475341537774756e-03,-5.973527429444009523e-02
-1.042454917074159444e-02,2.829050791156370939e-02,-6.867619385882159366e-02
-4.403970977425721717e-02,-1.379505759439374375e-02,-2.461819651213507584e-02
-4.490717135905373386e-02,-1.312652212008139606e-02,2.310430116481205142e-04
-1.327992629636216664e-02,-5.052843807500260326e-02,-1.834656783686654941e-02
-8.323564399633177555e-03,-2.046447245510787244e-02,-5.719507918573972505e-03
2.517111012639568907e-02,-1.965878502809316648e-03,1.460953841002214128e-02
7.391932696012003257e-02,-2.392817117239508240e-03,-1.361167116250671348e-02
-4.081776779807817779e-02,-1.293895872173599082e-01,1.412577415305988314e-02
3.806919769463737446e-02,-1.306309701920092999e-02,-4.026212765258792292e-02
2.381001500514754593e-02,-1.473310328907034145e-02,4.589810675313506227e-03
-1.286831797152214463e-02,7.071511305578075113e-02,-3.061227594745498382e-02
-4.823179588852315874e-02,5.920015508806034804e-02,-1.239182396008540500e-02
1.964253926502400674e-02,7.733849267716995379e-02,4.480873846868385635e-02
1.804964837854667204e-03,1.014016017984003398e-02,4.757116977868400959e-02
-6.143062530149225736e-02,4.086803046228125458e-02,-2.616292810300204982e-02
4.449368812665759065e-02,4.716259694484120635e-02,-2.444964158965961393e-02
-4.414100820962846283e-02,-2.882276579054964157e-03,-5.698245108322172459e-02
3.774940134058513835e-02,-6.761129090291477517e-02,-2.613144618177335246e-02
7.591940527675548889e-02,-2.323824210079729162e-03,4.264895166460173914e-02
-2.502440023899518955e-03,-2.320220057765806643e-02,1.441825787461497275e-02
5.958425271599874368e-02,2.764960002434000905e-02,-6.209008842667891430e-03
5.190056762109661326e-02,-1.119051434492631877e-02,6.787749020570856689e-03
8.028594353491634583e-02,7.328102519615903310e-02,7.137002802747140218e-02
-4.427450908037238592e-03,8.891744396803469893e-04,-1.927739561122778292e-02
2.043308268844301959e-02,-4.686379237863733810e-02,4.780827797792836648e-02
4.070369859152832281e-02,-1.029281013862637980e-03,-2.334624027370454935e-02
-3.641433115751790267e-02,2.713429084098386776e-02,6.141695898632406475e-02
-3.421999250526135822e-02,4.480760741587035134e-02,-1.426765757411556541e-02
-8.519089793034395619e-02,1.351172287060305351e-02,-2.918465088059718840e-02
-2.135121431938631978e-02,-8.971270956570102928e-02,1.487758143929151025e-02
6.411021362499906562e-02,-3.138507922859120475e-02,-7.751329587181141761e-03
3.857350340214460438e-02,8.663950343699620971e-03,3.025308026146224932e-02
5.547037051006369762e-02,3.139817409530513970e-02,-4.043666369402754840e-02
1.406313792057380802e-02,6.570807126496718172e-03,-2.616345638109317511e-03
3.250630500526290045e-02,2.912491739803168070e-03,-5.245436224766882732e-02
-7.583768602495928428e-03,-6.274481801066795518e-03,4.422802086812439859e-02
4.077133817765192514e-02,-1.388193090373823074e-02,-1.797527833338190620e-02
4.411614682423856126e-02,-5.720068537237374406e-02,9.913694074075034973e-03
-5.852727535546907445e-02,3.271983430692319145e-02,2.636670405235599229e-02
-3.017180247998847362e-02,-1.971348540969101656e-02,-4.147977482376821734e-02
3.020562437013584942e-02,-2.984902643153397594e-02,-6.466943370826160054e-02
2.274649235767990663e-02,-1.727678207002611085e-02,5.989285380839567963e-02
2.097207587677656776e-02,-5.165859823739608891e-02,7.362772943600463804e-02
3.680676579008205357e-02,6.050883298271464428e-02,1.554705576143834873e-02
-1.160102560811198252e-01,-3.934142847741307208e-02,-1.824967542627331518e-02
-7.556007527038299809e-02,-1.723549973656822790e-02,-1.923315916587934812e-02
-3.710832302772116426e-02,1.777045380020114348e-02,3.118887834963951847e-02
-4.274371789748599576e-02,-5.215191325129614475e-02,7.633541219373460134e-03
6.520915059078827292e-02,2.085318296549801623e-02,6.436718632275022396e-03
-6.819414409095501950e-02,4.175744105082544039e-02,3.137198779943595889e-02
-6.176924264201166803e-02,5.263935903007625067e-02,2.624900404363922357e-02
1.233923390104959758e-02,2.358655865793788525e-02,1.543339768412580783e-02
2.097266470775968530e-03,4.372355228876584343e-02,-2.905518564743676119e-02
3.126224294474044818e-02,2.722656029071864048e-02,-6.536062513866023986e-03
-3.222815579586034516e-03,1.076978974533789567e-02,1.833565795946952293e-02
8.923740769426712766e-03,-4.428971784060724282e-02,4.123165584663408822e-02
5.966663470252300122e-02,2.188461101278536131e-02,-2.435988643657124864e-02
-3.452339689216266105e-02,-2.098460891770917089e-02,-1.541499256077865851e-02
-3.201573197908309104e-02,-4.796534586815465878e-02,4.218957476863473971e-02
-1.711065128471854491e-02,5.083054559547085793e-02,6.219732939291310742e-02
7.239995360576971864e-03,-2.432758532775937399e-02,-4.936210874778665381e-02
-2.169872038966383365e-02,5.978986842367116361e-02,-6.985727515039548939e-03
1.027707380388641692e-02,-1.497000811595907387e-02,3.813098261820885293e-02
-1.648344190972144199e-02,5.198677315785971836e-02,2.575721042319167528e-02
1.206263717817420908e-02,-1.363753594797889948e-02,-3.317075952714742659e-03
2.240893266454845045e-02,-5.542289863327336426e-03,-5.855134205911435158e-03
-2.985107219428351916e-02,-1.423500565456619141e-02,-5.108880712691832304e-02
-5.558688849723155551e-03,2.160641893936708982e-02,2.047952695550378857e-02
2.550009966867591502e-02,2.710200613878788189e-02,-7.214211216674994674e-03
2.215367217368615499e-02,2.480327769906458951e-02,-1.178083898382301445e-02
4.004625610016324805e-02,6.662469917557151643e-03,2.441607870556398649e-02
-6.113282668566023988e-03,-1.859549611596524737e-02,-5.892988207060073647e-02
-4.350773443149803105e-02,-7.363786910586266055e-02,-1.466712042654672206e-02
-2.394612076353299160e-02,-1.135041167512969851e-01,-1.585245506581847534e-03
-3.917336896930857272e-03,-5.273835071929487478e-04,2.575343641919198082e-02
-3.988510610493352371e-02,9.441266277759480588e-03,-3.430502519219576912e-02
1.788947444238069224e-03,2.542683176598486278e-02,3.933130241745984301e-02
4.017339543957767350e-02,9.037693667169601972e-03,2.940227096160048445e-02
-7.005718003114304315e-02,3.103794610297224213e-02,-5.088533854426529474e-02
-8.329756726682890910e-02,-3.332861041071288888e-02,-2.773826820703945151e-02
4.909906326227260476e-02,-8.371575910232338658e-02,3.966465225310846637e-02
3.617759520445743004e-02,-1.123819887662043208e-02,4.512559562532832830e-02
-5.246138631910984493e-03,-3.223595974916287216e-02,-5.888915498123798928e-03
1.603984336459206121e-03,2.026648118297031190e-02,4.693484321432920582e-03
-1.772688369087376328e-02,-2.965809752374363659e-02,2.177200916807701600e-02
2.563070891064631041e-02,1.095323139259325035e-02,-1.998498958097984224e-03
7.154115272076101185e-03,-1.227260017167143558e-02,2.985583534165988512e-02
-2.306087617383789645e-02,1.764429351883488664e-02,6.741070936116484724e-02
4.563713368425189459e-02,-8.799313265505480375e-02,-4.306210726366235808e-02
4.394299785435212130e-02,-3.833486665172659022e-04,2.340967044820110171e-02
3.773257704531704157e-03,-3.204522655304278128e-02,2.379927088996682677e-02
1.502568700104153429e-02,7.780911420342931199e-03,1.969189655425045149e-02
-3.256953162424633397e-02,-3.365081375585386031e-02,-6.223219898270917344e-02
-1.334395603496220557e-02,1.687382123423497235e-02,2.681068295083870526e-02
-8.304739336245510820e-03,-4.486240307713377368e-02,-2.595930916424023238e-02
5.781197329977931509e-02,8.239396100390000699e-02,-2.459210534047770111e-02
4.410709298502115544e-02,2.574780217397773865e-02,-9.348638242193740150e-03
3.406844360255090187e-02,-2.090075665014260939e-03,-8.743177176837244047e-04
4.838684041877044234e-02,4.690867398214413481e-02,-3.774013615289813217e-02
-6.025347887845013128e-02,-4.839257874947364146e-02,-6.179954960952875956e-03
7.277640670725790163e-03,-8.029797827232498797e-02,2.507350707461293224e-02
-6.519814769790759426e-03,-3.397447356557032477e-02,3.148438770689834104e-02
-4.532162976698760060e-02,1.078585035500958904e-04,3.383820879696296333e-03
2.492540477195233709e-02,-7.003981009568242821e-02,-7.440005411271703945e-04
-2.574012785540041523e-03,3.908965366189980084e-02,-6.112124583642498943e-03
3.043818683895192084e-02,1.961927814285499908e-02,-4.200658851507802979e-03
-1.458729478192945413e-02,-2.851251324487011005e-02,1.051699470190952009e-02
-5.766673786014674813e-02,7.632731141602253078e-02,-4.219778865788104821e-02
7.049749341177022344e-02,-2.110592287765423319e-02,7.150632521224577209e-02
5.641513038186696943e-02,-1.454035882191266789e-02,5.444217326345538593e-02
6.837467103253168366e-02,6.584435539658138603e-02,9.668159446808577070e-03
1.423848731316342334e-02,9.027147295171919147e-03,6.697753163068155546e-02
-3.893445664877712153e-02,-9.345347230728853066e-03,-3.180148883238197860e-02
3.310828334507692067e-02,3.304794245292928118e-02,4.668751786305595786e-02
-3.499322494659527771e-02,-3.504402534105537786e-02,4.190621810649586276e-02
1.721839060954621567e-02,6.027741559901462348e-02,3.323275884151823123e-02
-6.632865796392041491e-02,7.173220454643378617e-03,5.370744311093541765e-03
-8.508548185026948082e-03,-1.596125569005340042e-02,-3.729611491994755390e-02
1.708895233566698479e-02,1.740957324864155290e-02,-1.499921927292749728e-03
2.392784786167610409e-02,1.885136330893125503e-02,5.366648515162162486e-02
-1.495385311242202094e-02,8.475440798509462081e-02,5.666785926614296975e-02
-8.004033345993423823e-03,1.263388502266691617e-02,-4.985275700882497302e-02
4.660690841784260324e-02,1.735913767755967695e-03,5.641055616794656696e-02
-2.258540413392105817e-02,7.444023687414941942e-03,8.961904577607195110e-02
2.008870220332620651e-02,-5.763607433636137173e-02,3.150760221536943323e-02
3.514134801873165792e-02,2.896866316710262901e-02,-1.906919376812811614e-03
-7.258664127983691962e-03,-5.861411914371226356e-02,-1.106303756143176692e-01
1.422279386889059929e-02,-1.623936687100093618e-02,-5.455232426907512255e-02
-4.697720489651700977e-03,2.490325676718499535e-04,9.956233515703080683e-02
4.918609883102948409e-03,7.704222132683254121e-02,-2.975908040081089168e-02
-4.698475850881035643e-02,-2.088275354281958832e-02,5.677646014570982697e-02
-6.577104101046467484e-03,-4.144424041275317910e-02,-9.888627147358232047e-03
1.745762228859710705e-02,5.754156863131551503e-02,-1.157230858020500720e-02
-1.645282686319387427e-02,6.772290244737576292e-02,7.005393965960636515e-02
3.285306196763070063e-02,3.843377548061107513e-02,-8.290738580143426628e-02
-3.506440056753835997e-03,-2.772895862360583857e-02,-6.877663606694883747e-02
3.251377001977101555e-02,2.229181543982779873e-02,4.482298079588241391e-02
1.222478784768557189e-02,2.858531754077490994e-02,8.092288096788489982e-03
-6.863407980012629916e-02,-5.902556570932531582e-02,-4.927680892794605166e-02
-7.017174204594599229e-04,3.175982529032060631e-02,-8.924203998902605073e-03
-2.050218032057958897e-02,-4.013205633489612054e-03,3.430040872092675937e-03
-4.189084078426086322e-02,-3.493921174742398855e-02,-6.458028733013504441e-02
-1.710239991526402506e-02,6.805068440739125979e-02,6.354097442582875253e-03
-3.420003572095763056e-02,-2.985105063414686746e-02,-3.103729968393609956e-02
5.824988057410724479e-02,6.756810761569606583e-02,2.906681861352201565e-02
-4.224225306098968596e-02,-1.376907754064501509e-03,-1.108795826526735862e-02
-3.731010006802408518e-02,-2.290495507911601350e-02,7.958810343745773008e-02
2.444086526146597906e-03,-2.356243378588834467e-02,-2.855297923079714792e-02
-1.509414340378373472e-02,5.519127260916677560e-03,2.009350783898104786e-02
-3.058022481357079367e-02,-1.589345909816424623e-02,9.825038521599351038e-02
9.195002596765746924e-03,-3.937524863121027313e-02,-3.470245840230973960e-02
1.693528353673637299e-02,2.841739640816672539e-03,3.111927813497639486e-03
4.539235347865917466e-03,-1.748679170191563478e-02,-1.395660349358310640e-02
6.351182438285053744e-02,4.302377126942804469e-02,-1.062580189676282788e-02
-5.013822011925930799e-02,1.252032132898460957e-02,-4.368455114620375945e-02
-3.759590688896588540e-02,9.196965899881102968e-02,-2.620012248428638460e-02
5.608485068497291899e-03,4.783604472092391202e-02,-4.240950238037172193e-02
4.294490807273605715e-02,3.858728304170673529e-02,-5.207391580287255850e-02
3.570763161582960615e-02,-4.171213733091020531e-02,2.704866376258177607e-02
-3.518963872858990594e-02,-9.774310427543867960e-03,2.625651948991767140e-02
1.862137754628205230e-02,-1.433215076651562191e-02,4.972021790876838057e-03
2.322903442651996428e-02,1.556149977271358877e-02,-4.031953332104472321e-02
-6.254500210971800436e-03,-5.552681901871086775e-03,-1.161858206471753918e-02
6.564276450074184310e-02,1.470951897433251526e-02,6.005915171204190967e-02
7.849131984653418556e-04,7.079491518166143582e-02,-7.816588922940332848e-03
1.006411190405485587e-02,-9.106878071207948067e-03,-2.577791892205036003e-02
-2.723970817375180251e-02,1.677537284152284813e-02,6.851442715561062435e-02
2.434678810235188853e-02,-4.531647146348773136e-02,-5.201536041415971701e-02
3.038622422132795931e-02,4.013855249240935730e-02,2.384807514387096705e-02
-8.043975044811664532e-02,4.694702990414909710e-02,3.488996100454887228e-02
5.502281965252862894e-02,1.625053063828523631e-02,-5.547265216121024384e-02
-1.399601421247136622e-02,-3.997102214838212791e-02,-1.659827549523210100e-02
8.244636157554639799e-02,4.342025241306025907e-02,5.020980294421015754e-03
3.955746027322864372e-02,2.421562625974880978e-02,-3.369595109716318898e-02
6.613211811578918742e-02,-1.400460670726320390e-02,-1.487393751482062390e-02
2.516683004449670608e-02,5.288776976933568658e-02,3.537959662939327374e-03
3.883427585515136782e-02,1.545591993561982926e-04,-5.327275135091768393e-02
1.546418072544835732e-03,-1.653103476860201537e-02,6.566458092265453628e-02
2.185216742043082083e-02,-3.666106069005871382e-02,9.684233414738197335e-03
1.004464296799616740e-01,-1.601199601087422916e-02,-1.006802828049388650e-02
5.614944552758658908e-04,-1.677408463192449697e-02,-7.020567205035001257e-02
1.325459759243322912e-02,-7.904956919185190944e-02,1.087872271023241320e-02
2.912197372626450578e-02,3.875542253941707121e-02,-4.062266919711157720e-02
-4.567599594137470437e-02,2.492396635867928298e-02,6.427584029439742386e-03
-1.795814987700553728e-02,2.499700614595986616e-03,1.849900108540940627e-02
-1.818827519759047898e-02,5.928276490510210606e-02,-2.872952513590967729e-03
-4.826921035220774203e-02,4.855278904320414757e-02,5.794507590122795204e-02
2.945638740109862361e-02,4.027623300637308418e-02,-7.509397627193138691e-03
3.600436862363390333e-02,5.773918545080992254e-02,3.223259176981732588e-02
4.361278316738304711e-02,-5.022762770330253812e-02,-2.743809456462161650e-02
4.259835728381749370e-02,-1.810760519411788033e-02,-1.536399064333876041e-03
-1.861572915603513069e-03,4.086853338813468267e-03,4.649477895154529444e-02
8.195861395177952979e-02,-2.530412017060756219e-02,9.031983896631513853e-02
-4.063404971594184595e-02,5.595113794487588388e-02,-4.193518889258165266e-02
4.671041005949793518e-02,-4.581562833883111177e-04,-1.227125241847732730e-02
-1.104871115815083543e-02,6.218556772526150772e-03,-3.975205891788438986e-03
1.972432836404975146e-02,-7.274093194422474873e-02,-5.453512935529353234e-02
-3.587671768795023391e-02,5.673014715218199083e-02,-2.097869902551397978e-02
3.234622818137908307e-02,6.265052309917122642e-02,5.999497701972595493e-02
-1.588575195341146787e-02,-3.736276434756640591e-02,4.769258394718260685e-02
-1.742140736229412859e-02,-1.056494872337180972e-02,-2.335711871535312012e-02
4.159886247678315149e-03,-4.799679856692377899e-02,1.817511376208605714e-02
-4.138418633991600842e-02,-1.901177086428046392e-02,-1.197209492253295017e-02
-2.081268225445685738e-02,-6.523646739667748884e-02,7.383177856506820125e-02
3.240100152176019627e-02,-8.333303913217329773e-02,-5.950122192583373604e-02
7.866504254847217492e-02,-5.029889585482804487e-02,2.521757759939094803e-02
1.002795618433344367e-02,-4.781870728423581740e-02,2.864701118329284965e-02
3.711034987302373744e-02,-1.376220284756424737e-02,4.984478879663658407e-02
4.155668414995762096e-03,-2.248560635031335991e-02,2.153680031173106461e-03
2.922185520316111090e-02,-7.229776094229678485e-02,1.667255443712678878e-02
-2.847627653501395850e-02,-2.632142947332711744e-02,-1.052241164220010794e-01
-3.081207667127341260e-02,-2.622454185101652166e-02,4.280514211255079249e-02
-2.665660019779717699e-02,4.920956113525887243e-02,2.605501827407061613e-02
-8.875304091007411855e-02,-4.254221995341752466e-02,-1.560692519166854801e-02
6.768660336837721688e-04,-7.133450426535770106e-02,3.215878870291277031e-02
3.222675760769733166e-02,-6.385287540871872891e-02,6.180968809441620554e-02
-8.548995789013212609e-02,7.019129733173862587e-03,-2.446807561987443536e-02
-1.278763497818916073e-02,-1.048648938583737616e-01,2.540741111985931125e-02
-4.832088594371387186e-03,3.957745173833357682e-04,4.144561499980196212e-02
9.577932739945779067e-03,3.506443839580268562e-02,3.582195008727429714e-02
2.923689559345640787e-02,1.226817992383765063e-03,-7.577100949767879602e-03
4.958917854778886053e-02,-9.900179471482242408e-03,6.235594149568515765e-02
-1.789836257969970200e-03,-2.208273142146553736e-02,4.616103685455821143e-02
9.557184946068775222e-04,5.704830600694098947e-02,3.299083821753486662e-02
-5.986712869320270219e-02,-2.320641543407878180e-03,4.030564047332385602e-02
8.846013430426769020e-02,3.768216909111413160e-02,2.453865728287889583e-02
7.864454419422099371e-03,3.260709419390492303e-02,-7.642263611855067140e-02
1.035422005693838465e-01,1.762960849063744187e-02,4.713974652917767710e-03
1.028408266987889397e-01,-4.260444953135256868e-02,2.556328290337624501e-02
2.201657961927271784e-02,9.489506854464473118e-02,7.610143886333636462e-03
-2.594709522764151316e-02,8.557496549103399408e-02,1.915423838009696136e-02
-5.580062941300085316e-02,6.629314727524367179e-02,1.044599857453270934e-03
1.111589528371005088e-02,-4.801479931446248767e-02,-1.549635415668522420e-02
2.337633483209276483e-02,-3.933921299766613561e-02,1.505119747363742495e-02
-3.635547013722886800e-02,-2.450358174739308142e-02,-8.255524042802013518e-02
-3.090392188143267424e-03,4.093789873924800343e-02,7.959736593818360351e-02
4.225245662087413756e-02,5.776584536161274985e-02,2.973436535067672248e-02
-7.418600673848820513e-03,-3.313036217995508209e-02,1.066813372627754136e-01
-2.870768835087712106e-02,7.483805748148708581e-02,3.295311965067658586e-03
8.576525589486999612e-02,3.402006828565149604e-02,7.615503521812543725e-03
-3.815069380619447170e-02,8.178838782126206242e-02,4.977847334615585068e-02
2.018455557481892843e-02,4.760756881949883279e-02,4.910501275574330471e-02
-5.076226073821269585e-02,1.087527695148518027e-02,3.574322934841055177e-02
-5.832390527305111871e-02,4.327739787996697646e-02,-2.927928907541106282e-02
-3.173110831345060667e-02,-5.611432174599491340e-02,1.275498814102592367e-02
6.893541504044997138e-03,8.084073016555844149e-03,2.449984326002405816e-02
3.986604090965687602e-02,-1.512651520154627109e-02,2.445091494468676352e-02
2.349147561086887756e-02,-1.185347149031616351e-02,6.734406819427030122e-02
-2.154531901967376636e-02,-3.188340226010426270e-02,3.075028699380820060e-02
1.071648969620964259e-01,-3.336251245218635475e-02,-5.252232342504795787e-02
1.421158874152555172e-02,6.081182137534711998e-03,3.404900862566861974e-02
-2.927884334095219587e-02,4.862346634521009375e-02,1.958454775926933913e-02
-1.410754730910290626e-02,1.384731238257189308e-02,6.304475043649927779e-02
2.771332336614284672e-02,-5.279184151903215660e-02,-3.915643886104060861e-02
-1.691421867348771174e-02,-8.916138699611685092e-03,-7.779729096966155055e-02
1.829516932465597573e-02,1.320107876746475471e-02,-4.304223333575992599e-03
6.489474672926107135e-02,2.116066425491982400e-02,3.191499157883211785e-02
4.553942120164406610e-02,2.052372519057836173e-02,2.343484157136789536e-02
3.109509070442046871e-02,9.233755620875019887e-02,6.550565809936237383e-02
-3.095357602947490169e-02,2.916333857717046812e-03,2.656905893833600221e-02
2.560700273560619772e-02,-2.448013828234426106e-02,1.940483475313981715e-02
-1.410722069876521254e-02,2.504460310755483106e-04,-8.042190778136249288e-03
2.604428288668288183e-02,1.165742113997616097e-01,7.371232789662439736e-03
1.207565193659169457e-02,6.734042895950922980e-02,-2.374326622009146834e-02
-3.680357641842539607e-02,-6.626061183624681883e-02,3.871172104362458760e-03
-1.407762590250654332e-02,-4.209442404283810640e-02,-3.804213001676567951e-02
-4.946055007241661333e-02,-1.506690605010228487e-02,-6.529413649063070188e-03
3.117748181932027476e-02,-1.760905326812590987e-02,-1.999644591688061815e-02
-6.326139622981952204e-02,-7.181894588873194429e-02,-1.681237264677057364e-02
1.284674290445164853e-03,-4.429171680448630577e-02,5.577320641408043539e-02
3.246142732043819264e-03,-4.106790176502577577e-02,4.295432112651272928e-03
2.268613090838777699e-02,-2.180240059835542726e-02,7.109928715833346846e-02
-3.643117791095548674e-02,6.733401032933375441e-02,3.235568639068710922e-02
4.226502391273442849e-02,-4.778378076055384699e-02,2.600746241012868998e-02
9.319081323103226011e-02,-4.541693444529276528e-03,-1.717740461288548223e-02
1.091370033539937161e-02,-3.365949771971095406e-02,1.175895869849050146e-02
-2.984179397390135727e-02,2.456673484557131415e-02,2.372144770812531153e-02
5.953729971103294272e-02,2.443592893667269686e-02,3.964789806215172213e-02
5.997827042945818449e-02,8.295110244856966630e-02,2.580932019046362769e-02
5.217457779245662092e-02,-6.329499859051015975e-02,-4.555438648057957146e-02
3.554844075743360948e-02,2.515347469371015388e-03,-1.466192729077594667e-02
6.596084038324803722e-02,-2.339485733462701514e-02,-6.257385865478894138e-02
-4.789189526166703209e-02,3.321566488672202111e-02,-1.625177873766802533e-02
3.684185983667018216e-02,-1.036254221548871778e-02,-1.081643252894371257e-02
4.798997424079683161e-02,-4.038057425596229544e-02,-3.729534389871982242e-02
5.037269314959994969e-04,1.721568706051612285e-03,-6.791445005219114150e-02
2.230739880406876555e-02,-7.484980382912241603e-02,-1.412519770087154909e-02
9.388372909511030371e-04,5.399087986512479675e-02,1.073986174185276483e-02
1.583387169354159157e-02,-3.691757839530634272e-02,9.584335536072442763e-03
4.187029707840198706e-02,6.397161111411656109e-02,-2.888591989154105921e-02
-1.902458257422419072e-02,-5.400860616480745308e-02,-1.666966592233375122e-02
-2.312237983746322570e-02,-6.576332743877767728e-02,-9.693239986464896292e-04
6.071767492690042373e-02,-9.788377804451619049e-03,1.492999651342289368e-02
-2.727494181849364832e-02,-1.097924545640331304e-02,-3.132041030447945545e-02
3.675942609523474153e-02,-2.152821277991437757e-02,-4.609102899733817302e-03
5.116593476177141303e-02,-7.618605248474981384e-02,-4.003637574337155086e-02
-1.545987577495841134e-02,-4.574757499208493422e-02,-7.748543919181204165e-02
4.822472805551918096e-02,1.049832818505806210e-02,-6.123757087715083966e-03
-2.739139563154617887e-02,-5.005468683122219625e-02,-4.247470020643643457e-02
-1.028964236433955841e-02,1.564457087276538427e-02,1.755967034337199001e-02
-4.300219499371464582e-02,4.302538874998917268e-02,-5.409389325324463760e-02
9.398719525652328433e-02,5.729874154448339613e-02,3.890496836558291621e-02
1.568038759961981696e-03,-4.085773791814330258e-02,2.595960953195906862e-02
8.954295259984103306e-02,3.403445946824448787e-02,-6.427792653478550666e-02
7.595014158366683588e-02,1.320117388065118399e-02,1.213029325326007990e-02
-5.343212286285375923e-02,-1.295241440862516386e-02,-3.854284007306674892e-02
-3.143433022236280516e-02,-1.164248387600215831e-02,1.989153447448367001e-02
-5.313442680707473192e-02,-3.266392511445952163e-02,-5.831920482281786888e-02
-4.977644136645452411e-02,4.463987188230168768e-02,7.369275267225231310e-03
7.987546820234135703e-02,-2.748328788689108348e-02,1.846378436989620439e-02
-5.576973104705068573e-02,-4.523061251531172028e-02,4.712340462957168019e-02
5.641306530476575959e-02,-1.061800974397965509e-02,-1.574290997730339384e-02
-1.678313662773820575e-02,6.935236886899937003e-02,-1.901264329827547298e-02
-2.000603929286691104e-02,-1.630910942951353457e-02,-4.423849064060144526e-02
-1.216081362420416562e-01,-6.248152107554876683e-02,6.303234409999544652e-02
5.012862069168816381e-03,-4.002391520046464334e-03,2.835960416051934874e-03
2.091205701923396290e-02,-3.649655737250587922e-02,-3.196918503864978195e-02
-7.710010161618675861e-02,4.368311738266574679e-02,7.404280250460054669e-03
-7.424733111050378642e-02,-4.936138922616336265e-03,-6.072578646212812778e-03
1.724827467631837377e-02,-4.514838668481045009e-03,-4.848014113579057066e-02
4.541319309411230576e-02,1.893969435822721870e-02,-4.132551025232278352e-02
-3.483896204443680950e-02,1.578406553685527888e-02,1.297821237049360393e-02
6.776810676434721036e-03,-5.257311541700077778e-03,-7.503504998460062969e-02
-5.482838015664623366e-02,-5.388178185020504191e-02,2.673449441867870729e-02
1.715792869061647657e-02,-2.798942228583869637e-02,-1.464146941348805873e-02
4.723112264862767279e-02,6.424954812994854159e-02,-3.044422367786189278e-03
-2.600561208504861745e-03,-2.667895617405095093e-02,6.503254021309532243e-03
-1.396209081298498307e-02,-1.004009809100362381e-02,5.356744945348706349e-02
-6.823819574767765739e-02,5.951642516084573731e-02,2.179475033556931007e-02
5.785200634217883831e-03,-1.070615405322931056e-02,3.731012569120386452e-02
8.268438887084369852e-04,-2.468947830366150994e-02,5.797646179852145032e-02
-1.487766883368437688e-02,-3.669626992013289013e-02,3.938173602343864564e-03
-2.448437099803955908e-02,6.661681995638961407e-02,-4.103607171708275464e-02
-6.220416097833733615e-03,1.747149907491736542e-02,-2.103514759374021728e-02
-2.734591548006248124e-02,-2.037476680481429755e-02,3.934978722535042994e-02
8.708272299265800917e-03,1.837779916538134772e-02,9.798097812552006985e-03
-2.788400449911834778e-02,-3.340301368918288660e-02,-2.326991661470353620e-02
-2.813573618662099096e-02,-1.684326365587881374e-02,-3.474440636899787244e-02
9.360919806869007209e-02,4.036422137512998137e-02,1.220136350500654679e-02
-3.384404765916701474e-02,-3.862932941771409032e-03,-4.816342154747550730e-02
-2.254456137164468840e-02,4.045618818555931501e-02,-1.007757333953921558e-02
-1.325565839531900846e-02,1.271960481976410449e-02,-8.065085943955607739e-02
-5.068748839219254509e-02,4.370811421970371979e-02,1.140823586020591092e-02
-5.699740616049561032e-02,3.557192386184768185e-02,-4.747462363409749378e-03
-6.312545683051449738e-03,6.235734023613162536e-02,-6.737075222952342013e-02
1.226811273504979996e-02,2.129364258907341656e-02,2.836222874334530519e-02
1.616425032106169613e-02,-5.139161046440265945e-02,3.881234819658130331e-02
3.852176180594039240e-02,8.301377718979607162e-03,-1.728169580041810996e-02
4.853333658868454192e-02,-5.531919490590331279e-02,-9.152339057420921797e-02
-4.260235566401716217e-02,6.293032413325985730e-02,-3.292322629691690067e-02
3.346223705207201915e-02,7.200763493903110032e-03,8.662048320327293653e-04
-4.475459999443395787e-02,-2.717394033700559416e-02,2.364357985957776798e-02
-4.443204794047968254e-02,-2.791712399198495453e-02,8.563674946195030946e-02
1.241281012282711418e-03,1.186099449014310289e-02,1.330210214526794405e-03
2.057837530107035906e-02,-9.445947673783559873e-03,3.125851193291833557e-02
-2.132735669409384013e-02,-7.348807337246285321e-02,2.998631239285740741e-02
-6.926428573350297546e-02,-1.769956848198176932e-02,2.972164268526697808e-02
6.105753894774354484e-02,-2.851990896959131702e-02,-4.356801069938650434e-02
-1.694494696270067158e-02,-2.692162707741935224e-02,5.296782185730312953e-03
6.825006064792288329e-02,-9.072596406379804246e-02,-9.642187831440719725e-02
1.208185216505327890e-02,-7.841017368326751516e-03,-1.356347064265643089e-02
-3.576545085626050419e-02,-6.157365267203013248e-02,-3.825291297040232102e-02
1.002152708521910490e-02,-5.450797194080789915e-02,-9.732043712369700672e-03
-1.431893723744561732e-02,5.405143551008856871e-03,4.870235299213249158e-02
2.303380714150215711e-02,3.610366318096368526e-03,-1.956497392518883466e-02
-1.135682558100884441e-02,2.488217241492850229e-02,3.611852206104462087e-02
2.199257387680319392e-02,-1.353833666888795305e-03,-2.421562369286122535e-02
-5.679170027361151590e-02,-1.710724544800205568e-02,6.099938734957160991e-02
3.940703156389231687e-02,-5.775640144095637446e-02,-8.904847037613806623e-03
5.552730248269531314e-03,2.927370930485192341e-02,-6.673536004975633151e-02
-1.608001567367228768e-02,-5.864092654890137868e-02,7.980502479093672108e-02
-1.013421773809332072e-01,-7.878500717481867407e-03,4.453866519468725055e-02
7.951178385776214511e-03,-3.433168069753503304e-02,-8.257929376528183596e-02
-2.699430024079045240e-02,4.341888421986257740e-02,-1.254871077609508515e-02
3.872299583512406329e-02,1.998815943945955395e-02,-1.100732219820917400e-04
-5.774456819952012571e-02,-6.002846144777478077e-02,-9.707986632739912247e-02
-4.284196132228727111e-02,-1.239794711165909807e-02,3.066783470197176342e-02
2.530495534232538382e-02,8.421172949994558052e-03,1.448153189253444627e-02
-1.468360142984836622e-02,-4.999599471888156038e-02,-2.431510974124874089e-02
-9.332002997508781136e-03,-9.261417256216424032e-03,-7.038405070914484363e-02
-4.133445213387491879e-02,7.941872788531866012e-02,4.144445902768251200e-02
9.331943389752667128e-02,-6.551810020364216836e-02,5.393025446706958131e-02
-3.244159082814736250e-02,-4.000931330780970602e-02,1.811718581139917360e-03
-8.507354636523291325e-02,-2.585359422380587371e-02,-5.841890062508786965e-03
-5.354967500160670232e-03,-1.599945206482633608e-02,8.465236540692885892e-02
6.817679171949991845e-02,-1.984781081409923986e-02,6.511216848498219134e-02
1.884689151243950853e-02,4.932590222919688155e-02,-3.396658384499883637e-02
6.534706176413808409e-03,6.853265896006111024e-02,-2.355815477229095036e-03
-4.131836046215307812e-02,3.134638643208737668e-02,6.339949875468732510e-02
5.837917842557859005e-02,-1.326958298042581544e-02,3.321499221424691062e-02
3.653143077420048426e-03,-3.581550576432708608e-03,1.510563839276018484e-02
-9.518505836536078624e-02,3.717278800718670090e-02,-2.180600839236637375e-02
-2.799698368410030377e-02,-6.555219262840978299e-03,2.517474692350559623e-02
2.912827276397558438e-02,5.454835890571025671e-03,-7.077264590766625674e-02
2.829333945164814318e-02,-4.957241284692210509e-02,-4.873019079702060191e-02
2.711306037349363665e-02,5.212022754478523243e-03,3.083189068736184521e-02
-8.962187555259161498e-02,-3.095915632197015956e-03,-8.117173238538010621e-03
-5.522369623635720384e-03,-8.776605777233841346e-03,2.106499854484767190e-03
-2.143129031446524072e-02,-8.082200670546234311e-03,1.054036546324832631e-02
-2.765537190821419286e-02,-1.706787379635234594e-02,2.688654658243623541e-02
-6.542432879333813164e-03,8.420054892653777018e-03,-1.182091748825695940e-02
-2.175463107250106068e-02,-4.526846986059663777e-03,4.229552068286238087e-02
2.538820712501685395e-02,3.159461075705484109e-03,-3.099631762965497639e-02
-2.674668121630903797e-02,1.234315835994044888e-02,-6.067858963162461872e-02
1.306294863632507033e-02,1.948755729893507371e-02,-1.359243509806686012e-02
-7.552188879500708329e-02,-2.678080938612300774e-02,-4.759676227008188300e-03
-2.558337757184980452e-02,-2.343136497466224988e-02,2.394302098910921356e-02
1.816431051565897334e-02,6.014327688477712902e-02,-9.018195559125275276e-03
-2.364932070004459666e-02,-9.331206849848185103e-02,1.988454929363505513e-02
4.277745723137819922e-02,1.088283703177443662e-01,-2.192517714737533124e-02
1.009686805363501083e-01,-4.265635241257528798e-02,1.043527861698615063e-02
2.871632133052839930e-02,2.870825862116423155e-02,5.164357786397808653e-02
6.411526542434564657e-02,-7.850496930173762877e-02,-3.004503058615209943e-02
-4.416303397392426500e-02,4.414517605641429820e-05,-3.386162214168240286e-02
-4.983939115104339679e-02,-6.959722573250377853e-02,-3.693743600152443046e-02
6.232953921791478669e-02,-2.759689416773178014e-02,2.678438158141145664e-02
1.007155322945537390e-01,-3.580740259785417795e-02,-1.615392552738821250e-02
2.256884713942236206e-02,-4.730353228134846072e-02,5.515095196243696707e-02
9.927004159214653303e-03,5.873664211852677036e-02,3.702072282130682013e-02
-5.565476740113850518e-02,-5.739950679515840037e-02,-5.903792290108223623e-03
-3.644493298161471939e-02,-4.711059179767136673e-02,8.527990363319858189e-04
-3.605422651274951124e-02,5.620073975294304774e-02,-7.384704607683661992e-02
-2.926523403795368988e-02,2.145381057141952652e-02,-3.763359479397900692e-02
7.192086858535625717e-04,-4.088432749284988399e-02,6.118934458668192494e-02
3.550908163342213208e-02,-3.104752012833735930e-03,5.521453400757980051e-02
2.901040110361503051e-03,8.651378950963127534e-02,-3.572438962306336008e-03
1.077748860305891565e-01,3.952278815737412382e-02,-4.526954717371979575e-02
2.084620737504959062e-02,4.217515521785294985e-02,3.013755246052567810e-02
-4.138050680115146901e-02,2.467894121248428649e-02,4.776491713371555647e-02
3.425636701665767808e-02,-7.182560937847462523e-02,-9.087024024793599608e-02
6.848110162792681033e-02,4.951160016573428330e-02,-3.884229436912009503e-02
1.440918116248186484e-02,8.408731978891352543e-03,-3.699867928885136603e-02
-5.985552410348053687e-02,1.304972149221837394e-02,3.390647762985371516e-02
-2.842489389771870462e-02,1.594076402866056313e-02,-1.645504845617366818e-02
-2.165885547656990276e-02,-6.850139372102985458e-02,4.411526712999690354e-03
-7.001739755180451039e-03,9.189498268397593150e-02,-8.655545068634021288e-02
-8.552023805493618597e-03,2.649497812452046401e-03,4.942746802491249092e-02
6.905873852852504637e-03,7.605216455292011790e-02,3.933181216032265864e-02
9.557592054726740671e-02,1.777994369395129517e-02,-2.840628313636152716e-02
2.915566696517649450e-02,5.972639765430821229e-02,-5.719629506305203004e-03
7.945984176704193325e-02,3.666460415092759827e-04,4.373243378266149922e-02
-8.766844262962881704e-03,-8.107585831474260762e-02,3.975341783106534077e-02
6.073977073330568549e-02,-3.842026316115675078e-02,-1.263803591102617696e-02
-2.595833244618963101e-02,2.064492529111828026e-02,-1.653536523672652012e-02
6.004093885854987905e-02,1.836755812226876713e-02,-9.348114142577984564e-02
1.055319252323909905e-02,-2.767148426876376091e-02,-4.615484811110098784e-02
-6.285899873029634002e-03,-2.435599818173725048e-02,5.469966058310601724e-03
6.875768998727141423e-02,-1.438466900411074570e-02,-4.719607248508003727e-02
-3.773981874373194111e-03,5.150498259739233475e-02,-1.471151744058255169e-02
-5.626964895568090097e-03,3.138358636105426092e-02,-3.520015302750270636e-02
3.526756453041278352e-03,-4.367961252073188777e-03,-1.825400683446131225e-02
4.628575555704495664e-02,-4.070794186746988969e-05,1.882723328246193109e-02
1.365676855953973021e-02,3.426333891771694146e-02,-3.874546596630270429e-02
-2.442794098666110914e-02,-3.905406287040075891e-02,1.593859341675702215e-02
3.534728729039637862e-02,3.560727848236090037e-02,-8.998662434583258596e-02
4.370827051105034833e-02,-8.220472039800311853e-03,2.810268865709261016e-02
3.817857303526169064e-03,1.017863711242094349e-01,2.170649887160257339e-03
6.695719467088075139e-02,9.329806054077738331e-03,-1.048115390213347903e-02
-4.743975197482797751e-02,-4.343369649526562792e-02,6.517900161285793137e-02
2.847853475564193423e-02,-3.410401186708161142e-02,4.727747681164643639e-02
5.449682263192203238e-03,4.318580512101225649e-02,5.680780278223256097e-02
-6.612531869108805027e-02,2.165297141576928014e-02,-1.660112689469981154e-02
7.866433715910224611e-02,-6.358829965332637481e-03,-6.113815751720207137e-02
2.963550382520223347e-02,-8.177040618116601656e-02,4.690888259013090145e-02
-6.193717471561833304e-02,1.791096626146967963e-02,1.135521798373193350e-02
2.692595518624253323e-02,3.951584070606917881e-02,5.667171260548777706e-02
6.393018887322081574e-03,-1.352663267387096448e-02,2.393842566432741181e-02
-6.392668450947049108e-02,-1.303102808393740049e-02,1.331296665461287679e-02
-8.763139755480592666e-03,-4.436936574960685664e-02,-3.057211938928771841e-02
-6.330559905970523094e-02,7.620978109230555630e-03,-5.927834351175934047e-02
-3.306543548894882133e-03,1.211134260537075763e-02,4.530716401321857600e-02
-7.574863348230673199e-02,-9.132253306018724148e-02,-6.324851607111954543e-02
4.224781193992304534e-02,2.335989492154138310e-03,5.980728268571450928e-02
-3.433314626741301463e-03,-4.097747957308676275e-02,-5.550123295233285597e-02
-2.263125734600376568e-02,-2.827132424555462223e-02,2.834925634361106991e-02
5.709791410033910122e-03,4.194889928552734959e-02,1.804867461454972774e-02
-6.867650171807744564e-03,6.080360779341890259e-02,-2.230776151008158955e-04
3.920941095919065061e-03,-4.448723550841518493e-02,3.655337100231186021e-02
-3.420372634616541258e-02,-4.228716823391347190e-02,-3.865290330685518944e-02
4.449610521397488749e-02,-2.103853162075963734e-02,4.919260845858081793e-02
2.572920698140698445e-02,-3.133382177135659447e-02,-6.688251483404827891e-02
3.785191270100041194e-02,7.674832872322961963e-02,3.097902802992929389e-02
6.226081835095593001e-03,2.819280017943732314e-02,1.380542952157173819e-02
1.945493388312234326e-02,-9.270764722062161713e-04,-4.616899383204785962e-02
2.017333034897502049e-03,9.169090100590551740e-02,-3.185608516087506253e-02
5.848325817689306377e-04,4.435769921725808002e-02,5.957210356326181344e-02
-2.292061405545535793e-02,4.632877131782452661e-03,-4.250637468910307276e-02
5.746840911796194384e-02,-2.632212618657900002e-02,-2.030436538405577113e-02
6.061197590770156518e-02,-5.554310785098898889e-02,-2.834576600027057663e-02
2.229671476817059270e-03,1.088137441963705349e-02,2.458456596634571792e-02
-3.524427561966650413e-02,3.180333444678119792e-02,2.644088143223694704e-02
7.705503406341504546e-02,-3.179184743203479491e-02,-6.360338029860868048e-02
2.392185299618402108e-02,4.629039778188211857e-02,-2.410994677987876589e-02
-9.543483682982793759e-03,-9.392667869955420579e-02,-2.760195077800210381e-02
5.530445154012959830e-02,7.667288756653532766e-02,4.324176075266666919e-02
-2.139281160408148391e-02,2.965929087068500114e-02,4.858001938116072310e-02
-1.593665677836026556e-02,-4.406290344225967381e-02,9.738859701941668737e-03
1.822516691109343084e-02,2.503058581463553020e-02,5.035985391837568236e-03
2.885045734442032161e-02,-1.243254640352374138e-02,-4.688655305662916412e-02
-1.933531630925949471e-02,-4.800634313550822957e-02,-2.754711504850416211e-03
-2.317202065963613195e-02,-7.235830373425734818e-02,-1.378815773287884322e-02
3.947495988781141857e-02,-6.366544308024424392e-02,5.651376647275095644e-02
8.205290235146066313e-02,4.359057819761973096e-02,7.554084327142972233e-02
-1.991107088160702036e-03,3.523566202362461014e-02,1.872948564126503124e-02
1.875158955747994668e-02,2.965666053793265117e-02,5.180101475214793187e-03
-3.335972950299473383e-02,-2.352574835653566815e-02,3.858006586652996256e-02
1.580080967098973152e-02,-1.395292246963402392e-02,-1.683234831968109108e-02
5.738403994757341336e-02,-2.424079627341819976e-02,-1.668710297966094491e-02
-7.297016125048039203e-02,4.383638846104306180e-02,-1.926337513860620909e-02
4.772755256670015156e-03,-1.650011307904089564e-02,-2.044205265615109401e-02
-3.830037190887483015e-03,-2.019581994044773385e-02,-3.803987587769173256e-02
-3.797692841613281578e-02,6.115781456000930413e-03,1.903751636878729669e-02
-5.834285192648378665e-02,-3.876759757835033376e-02,1.474075659449406361e-03
4.098451761953159078e-02,1.080418903554985627e-01,-4.630007943584184965e-02
1.195460895082645601e-02,-1.559518511412213461e-02,-1.263540924962066811e-02
-3.178390464847137553e-02,-7.261742263782432205e-02,-3.827058795359784826e-02
-2.447190498133405487e-02,-6.209938712448108238e-03,-4.930190675556983537e-02
4.404865848268597200e-02,6.996341454059910869e-02,2.291988136388638242e-02
-8.073637004954013763e-02,-1.782512184271292308e-02,2.403766072280203933e-02
2.754738765124779831e-02,7.468312775817430652e-03,3.528840860293084442e-02
3.102599817542996824e-02,-3.508726627344880243e-03,3.511571694027896401e-02
4.002603599259401540e-02,-1.138770242355447992e-01,4.586502431668674357e-02
3.434685831358640085e-02,-1.396523156460695823e-02,-3.624016212601401197e-03
-8.485651103848307342e-02,2.611667957351748032e-02,-5.506283909158381923e-02
3.676007499345438495e-02,-4.133548751452850029e-02,-4.650255814424405360e-02
3.025028404368450535e-03,-1.517428961922883020e-02,-4.051430523351434027e-02
3.377436173636585298e-02,1.794951442740956582e-02,6.884211106652556034e-03
2.328425913916069151e-02,-3.318745369918765786e-02,1.913334765269158674e-02
-1.075522602832459582e-02,8.273980910657507959e-03,-1.988353863786097853e-02
-3.168024310197784660e-02,-1.968404991363801107e-02,6.955085976338140630e-02
-7.004419506989626072e-03,-5.907150139920511883e-02,4.794227011798554705e-02
-5.580808302749874772e-02,4.172762699065138414e-02,-3.519095606320558900e-02
6.394706927305610772e-03,-5.740539486768146682e-02,2.656337509314946489e-03
2.660815161535027076e-02,5.226838471671479795e-03,-7.270490570982404699e-03
-2.526047286510459122e-02,-5.756466125938539125e-02,-4.819364349172981787e-02
-7.771508951332129281e-03,5.101426719127071657e-02,-3.273137036732617217e-02
5.875229635016556741e-03,-2.861455232951234245e-02,-5.535049473219993792e-03
7.049084719176402190e-03,1.721963871726356343e-02,-3.242159682859049180e-02
-1.298186094963603952e-02,1.032265133507817394e-02,-1.176648561072789895e-02
-8.299058182585403176e-03,-2.562766280356957790e-02,-6.254955965631728287e-02
-1.535783622997285991e-02,-1.945719348514308999e-02,-4.683960598294880512e-02
-2.724833165455065390e-02,5.130615208464828214e-02,-1.300192199569420448e-01
5.651871472659802942e-02,-1.896257607738698059e-02,-2.452789602768091701e-02
-4.428380773033834678e-02,4.398776760147371512e-02,7.239204883806479862e-02
2.723209932488047588e-03,-3.689100007371349903e-03,3.229701888597809236e-03
3.055140491931095451e-02,-1.899944332814832576e-02,1.791786150779221126e-02
4.463595474638702015e-02,2.682769715505525787e-02,-1.862734573377896816e-02
7.383205006022869332e-02,7.997518768083783369e-02,5.957017525624850457e-02
1.577320024448305644e-02,-2.048042337678243965e-02,4.294914168095329693e-02
-5.650277842297909275e-02,-1.132767968551240054e-02,-2.149841877216290137e-02
6.091981528547271013e-02,7.947895781928698833e-02,-1.270275937804290350e-02
2.020107247961366523e-02,-4.332405047834223671e-02,-1.962935974039875867e-02
-4.724679159349695623e-02,1.084346942629356957e-02,-6.600839075416868595e-02
-2.818137914705783412e-02,-2.134418538151946522e-03,2.257554024686060992e-02
-2.607067300921798308e-02,-3.951791579551133110e-02,-1.121920972062860535e-03
-1.647021058201070601e-02,2.626338944322041680e-02,-9.122702311400459133e-03
-1.835822274761022763e-02,-4.055374964531881232e-02,-4.642428559292893775e-02
4.557173990964082100e-02,-2.527920444968787851e-04,2.742257434943131192e-02
-4.544087158221148809e-02,-5.352578760066901975e-02,2.907633436951269357e-02
5.670373012867405138e-02,5.071102900169117966e-02,-2.258381616118274732e-02
-2.508398186622819159e-02,-8.003425069582410789e-03,-3.973962293978271568e-03
-2.857045987925768346e-02,-8.400056936601145441e-02,-8.842018569123745453e-02
-2.111379426817564312e-02,8.644904608639535082e-02,3.533717420797750919e-02
2.481667272733797600e-02,-1.920759803437365951e-02,-2.585335043429222782e-02
2.438139626435003107e-02,1.694621400416132517e-02,-5.414270195534391953e-04
4.697323052355316907e-03,-6.473280616330658044e-02,8.332594812751004110e-02
-7.845612558395236025e-02,2.182949489992236369e-02,2.815263107724992608e-02
8.833118085625708826e-02,1.519502603057861813e-02,-5.959119588583872314e-03
2.416249105926776932e-04,5.744116290753219917e-02,6.373974765467192369e-03
6.400894899456633161e-03,2.920841281556476460e-02,-3.145822214312312542e-02
5.942587416306318454e-02,1.828087800869816759e-02,-2.601135652400586237e-02
4.558388600088060516e-02,-5.931884715124089574e-02,-4.116318055380009493e-03
-3.002796204709382369e-02,2.652749409991721902e-02,-1.144626435273471410e-02
-2.206168961034749021e-02,4.658680067230084459e-02,-2.666014891193431088e-02
-2.019096527094705815e-02,-8.689156183338925601e-03,-1.266230899884560057e-02
-1.178797413491126586e-02,1.065039845439970899e-02,-1.005982693783014498e-01
1.592987680785416110e-02,2.085662277813090174e-02,2.368227572907221148e-02
-9.503818996480277448e-03,-5.072527248311337056e-02,-4.419674141392061079e-02
1.661458588542412407e-02,2.369237795418589060e-02,-2.039190318057670578e-02
-6.669848552427144750e-02,4.027711977840710104e-03,-1.619858143080571064e-02
-3.892615230562123524e-02,-2.749358794053625987e-02,-2.081576534594464442e-02
1.898952998745928947e-02,-6.159022463978366252e-02,-1.319399708367977909e-02
-4.161324938865543915e-02,-3.325693649349813902e-02,-4.051652991038445784e-02
-6.153249784815044941e-03,-3.194691911596983513e-02,-4.927892554866358105e-02
-2.203699337533231509e-02,2.280787246339514157e-02,-2.539640370134076813e-02
1.401615473739317372e-02,-1.859452465770057919e-02,4.885623152035695194e-02
-3.411396811534585932e-02,3.937855723299298755e-02,6.276110171087617056e-04
3.753481970868963874e-02,-7.313441007289278074e-03,3.591292282120289725e-02
-3.827367813859297585e-02,3.419678697208106133e-02,-7.658120824952770189e-02
5.001358160197851704e-02,-3.322360726130137859e-02,-5.568715479126871114e-03
3.676845768211187138e-02,2.657304282567633791e-02,1.619117844505052126e-02
-4.971651728465012465e-02,-1.336070577831950656e-01,-7.703363461494304454e-02
-3.822260522436741331e-02,-9.396271694182660450e-03,-1.805156547637700240e-02
1.088527388309239695e-02,1.482543255406348209e-02,-2.693773075119039809e-02
7.699328562025915465e-03,-1.080736405310643855e-01,-5.268783937224610220e-02
-6.292111687483981086e-02,-5.687999246106482942e-02,-1.853281692275911806e-04
2.448205934255547750e-02,-6.099110836334312169e-03,7.529586753282883904e-02
-7.652227060834636968e-03,4.400152188843441808e-02,-6.199490883999349625e-03
-6.296093952934618543e-02,4.563309333301966697e-02,-4.651656319995951111e-02
-1.294099920512497941e-02,2.923543443329838787e-02,3.276169191374699724e-02
1.646277663391152238e-02,6.046985576439815185e-02,-1.510849806036409712e-02
4.779916020899099144e-02,-8.300703858645182287e-02,7.500334951135462919e-03
7.408012768573485340e-02,-2.560908854242047172e-02,5.174410439541064777e-02
6.035146242327906613e-02,1.359364442933308492e-02,1.311099988937804162e-01
-5.528415634237950418e-03,-3.933728734603710031e-02,-5.636476409803429372e-02
4.582695090629974183e-02,-2.493913055879829963e-02,3.606853397865134730e-02
1.190759391070681135e-02,5.429697047944338772e-02,4.087306039463027563e-02
-2.527720044492517623e-02,2.275904500838626596e-02,-6.839743571913593778e-02
-3.918784054806079276e-02,-2.433655083006175390e-02,-9.786624061352176222e-04
1.598896051548038058e-02,2.725334400567957019e-02,2.394899906861824510e-02
-6.089659856549069173e-05,3.445545741147580665e-02,3.855919304329300662e-02
-2.791987810260169664e-02,-5.697104538888444342e-02,3.346084568879834076e-02
4.748694569982107871e-03,3.011328805758521285e-03,7.610232578127583761e-03
-3.007606887907427265e-02,-2.263659144258977837e-02,5.113872647102946090e-02
-1.792912345679876021e-02,-6.291351566466549250e-02,-2.253178968732802087e-02
3.549418509055517201e-02,9.329765491775472621e-04,-5.836054929083879517e-02
7.117743370003022652e-02,-3.573510788166361224e-02,3.109002953625998947e-02
1.349753547602140856e-04,-5.338496781124869861e-02,3.267001756949587665e-02
-3.656711132109294327e-02,1.413716654391200880e-02,7.163777166640278304e-02
2.164360581625994484e-02,4.392030943017168759e-02,-6.524449843883676353e-03
-4.653902804308856361e-02,-7.527051330261867214e-03,-2.429642253201093338e-02
-8.124250248963917065e-02,1.127457286074360493e-01,5.632625954527339246e-02
2.688538529479352415e-02,-1.305349241566353818e-02,-3.993020616995719002e-02
2.807641038659123428e-02,-2.473106653245176899e-04,-5.262856371906190350e-02
-9.825298907231261140e-04,1.899706574647373400e-02,-7.773425323883832727e-02
1.229995314775571454e-02,-7.608828691561850266e-02,6.339442607272108288e-03
-9.184332976707154303e-03,-3.901731421728904525e-02,1.498277826164800750e-02
8.661247735745445861e-03,1.730528522271115172e-02,5.823374716440177234e-02
-3.620271152509306478e-02,2.402650484236599007e-02,-1.696286536332253236e-02
2.727576627967479451e-03,-1.675397216382143450e-02,-1.491594302564679987e-02
-1.433733254260328126e-02,-9.574423635066386939e-03,3.404214095657081413e-02
-2.360200804993594845e-02,-6.633515058055575175e-02,-2.446158466928399777e-02
1.594784301352955222e-02,1.026482203878787691e-01,2.854214537987211087e-02
3.507505043467792905e-02,-4.030347584007057393e-02,-2.926051713307230642e-02
-5.589490215259843714e-02,4.067821066860634327e-02,-1.563001853445322026e-02
1.643605825003337240e-02,-4.092915512365575409e-02,1.063833796439205177e-02
4.805956115739309226e-02,-4.869731636032532951e-02,9.639698894359350831e-03
4.354017987314867666e-02,2.394100393857088657e-02,-1.013696654273290171e-01
7.431884529159776820e-02,-8.796718488442602235e-02,-4.097040622547184346e-02
9.936870058788996665e-03,9.386252923136663429e-02,-8.480998774023379427e-02
3.995324694540787480e-02,-9.771412910163049248e-03,2.828592248733255432e-02
8.572715552060659883e-02,1.834084360337991798e-02,1.308901468631216416e-03
2.179378098542577354e-03,3.220427544611154103e-02,4.661820123721106129e-02
5.915556012220136994e-03,-1.268884900896539991e-02,2.274871446444387893e-02
2.956060942988344986e-02,1.623662605910166506e-02,-5.279822035758613419e-02
-4.388787423855530084e-02,-4.916737587853887113e-03,-2.638528689995600987e-02
-4.768670321400560880e-02,4.674752193188810336e-03,-2.932673019589234278e-02
-4.410931899982573588e-03,9.813726723362583421e-03,-1.605277731871646366e-02
9.305492050490946077e-02,-5.430231362981633586e-02,-7.884229811589914608e-03
2.484260451724541394e-02,-2.478326887263061426e-02,4.987813111319829018e-03
1.944832624667002310e-02,3.738471194092362698e-05,4.709100074037040479e-02
4.159983778936794316e-03,3.053892822056003889e-02,3.344585405721198917e-02
3.294491700879590562e-02,2.123927774221613315e-02,6.796499997136586091e-02
-9.907248973200361020e-03,-1.988571028552545833e-02,-4.132717778054036117e-02
6.697460645561939541e-02,3.311881586261753579e-03,-7.822249146250440099e-02
-1.650630596851065598e-02,-1.578436149442063313e-02,2.028133275726600598e-02
-2.148803500977756673e-02,1.890987351803411279e-02,3.087231486407742559e-02
-3.316849367588892844e-02,5.652007553997878513e-03,-4.118993113097038639e-02
-4.136423203908870874e-03,-4.429509502712150604e-02,-2.817806553619733173e-02
4.764318524753886203e-02,4.975311428161001415e-02,-2.705500475536534721e-02
3.599586695305782846e-02,3.155181994767691789e-02,-4.950814479722720311e-03
-6.337310579923574518e-04,4.667760793885129822e-02,4.556369832932175706e-02
-4.146520471049582740e-02,-6.780680093978128098e-02,-5.260588565670387684e-02
-7.964092050156585138e-04,3.780781659188539590e-02,-4.294930135803522587e-04
-1.292763079777884370e-02,3.155182973597542295e-02,9.628155364277902334e-03
1.563332690165108313e-02,-1.831574157731734667e-02,-2.633449038464181352e-02
-1.650942526022959947e-02,-2.567547423487491834e-02,-9.973655439473208539e-02
-3.146992298545978062e-02,-3.927154853046105343e-02,4.252367430517799834e-02
-4.228168512541223556e-02,3.841289903147648843e-02,-3.311650780257840293e-02
7.598072794691153320e-02,-6.557697028644213222e-02,2.755914778002177198e-02
-4.078525332905420624e-03,-3.232740934695305796e-02,-1.902796412330373318e-02
-8.013567631339629793e-02,-2.786219592864570826e-02,8.090243378633727236e-03
5.102982141442542752e-02,3.964024824441519934e-02,-8.017730142624251641e-03
6.821245883631286977e-02,1.138788599911975952e-01,-3.542812046539545873e-02
3.106384728778829180e-02,-6.068343456549025322e-02,2.763279612130230614e-02
1.523151786547149306e-02,3.519373683108010381e-02,3.989538602773486098e-02
1.631914938093290482e-02,-7.194080415204688606e-02,-1.603671263188084783e-02
2.219251086620730590e-02,-3.395416657959000883e-02,-1.716715048021748638e-02
-1.974678083598271211e-02,-6.450196384091212709e-02,2.132382684409016987e-02
9.585896207912435532e-03,2.558042335144945084e-02,3.695633810976740180e-02
3.116559242148157424e-02,1.096967000006839922e-02,-2.590400606458322444e-03
4.542698207624123324e-02,-1.295197696908714780e-02,5.278589706704535367e-02
3.454994187632656061e-02,9.078693587325491199e-02,6.300774813904751193e-02
1.325524633995159990e-02,-6.257029695242773137e-02,-3.054561487463145625e-02
-2.574713735658138575e-02,-1.418415243184166681e-02,3.957578689294174307e-02
3.677622314383468399e-02,-1.379651649974407944e-02,3.191157753835886790e-02
4.226186432296131362e-02,-2.534949072353257383e-03,-6.369914069002068080e-02
1.823306378338495140e-02,-1.037330834476895940e-02,-2.294278772770526678e-02
-3.615006480927205213e-03,-2.460389466144477857e-02,6.331713223853983191e-03
-3.043046849954084490e-02,3.310564182957786983e-02,-7.814423234507305097e-03
-4.622261889507384321e-03,-8.269392625377446071e-02,3.647058993332818891e-04
-6.349055919533307286e-03,-8.574750693421973394e-03,-1.696406001808394015e-02
-4.585087716428108001e-02,5.297326826061859312e-02,8.717125672778935908e-02
2.509431881786727478e-02,4.821033861523819040e-03,6.160675927556375463e-03
3.215985178154039809e-02,1.519987376384440876e-02,2.362097695489548399e-02
-1.315039249630144819e-02,-3.836523444584898947e-03,1.084436915513334841e-02
-9.109955546080170108e-03,-6.832778169177043670e-02,-3.485566020467052023e-02
3.182095962303425896e-02,-2.831034995576260649e-02,-1.605929009254941642e-02
-4.290377785762200524e-02,6.577263592164735162e-02,-2.426966411494793988e-02
-6.156611089429558925e-02,-1.205503933636551360e-02,-2.479691984805828739e-02
-8.297433595060618727e-03,-2.810786490202622431e-03,2.871571835791253760e-02
-3.868027827540822250e-02,-1.457411193182616208e-02,-1.156806822569374574e-02
2.300812324530967720e-02,-1.707588888632376872e-02,-2.252249846349414428e-02
7.235261747068033600e-02,4.185362161646831447e-02,1.296660581630984001e-02
-4.273193719784802724e-02,6.313103306288861405e-02,-5.885299254096513881e-03
3.376261981386219357e-02,7.781778966211569393e-02,-4.321834629556726287e-02
4.911726653943683518e-02,1.610077359525626667e-02,7.109159121970412554e-02
-2.922413583146534974e-02,-8.539467249017758388e-02,-1.347776402223999082e-02
7.010167138517776897e-02,-7.817239073294037638e-03,4.464438652379176808e-02
-3.844521365255144929e-02,3.148555313934480598e-02,-2.423045256750224613e-02
3.392210755509827286e-02,-1.257617319230506722e-02,-4.384890407382708091e-03
-6.339527849921516162e-03,-8.614166448927457198e-03,-1.129594580642004908e-01
-1.807551789949201834e-02,6.272443463546513442e-02,1.217626084879945038e-02
8.065585158445721936e-02,1.566088493807143989e-02,-7.594088395599602262e-03
-2.046814728250593782e-02,-8.424108801376523070e-02,4.558299152558526607e-03
1.484595808274653470e-02,-3.496433470708496666e-03,-3.035114342015512914e-03
7.202250641879609505e-02,2.245350806049943582e-02,6.615599978109579227e-02
-2.698672367512569212e-02,-7.401212910197464689e-02,-8.529570956489261613e-02
-2.453574372537306592e-02,3.130294893628742664e-02,1.291614585606344970e-02
1.781410311465686513e-02,-2.548773765198428243e-02,-3.417084416767857125e-02
1.085373891704248528e-02,-6.539470756700005438e-02,4.560426368968593241e-02
2.167804354803843161e-02,1.171953627555010792e-02,2.600189893517074191e-02
-4.073703445193203182e-02,5.162334908661390942e-02,8.805084439869567681e-02
4.198906505173151393e-02,-7.945504382863016616e-04,3.113461199557228387e-02
-7.842942640987987657e-02,9.341591708555838786e-03,2.043699856116303060e-02
7.861005329968497046e-02,-2.157587262238869555e-02,7.572378337990000319e-02
-1.393947268333058966e-02,-3.181321659084757059e-02,-7.684796688759324562e-03
-9.838359315125212029e-03,1.134034866118869417e-02,-8.070904780393292621e-02
3.945072402216445034e-02,-6.851051543917803521e-02,6.598235748764534787e-03
2.968489700998252004e-02,4.582068699374478721e-02,2.466138918926699675e-02
1.421650325589039017e-04,4.838012189718158759e-03,-4.327469884939115496e-02
-3.260497929240519606e-04,-7.748500837691385534e-02,-3.446970398074450381e-02
-2.003732751159412184e-02,6.513216355691944792e-02,1.894388133213433315e-02
2.033151644886184786e-02,1.250047440533249565e-01,-3.011341752301069374e-02
2.058499342134543011e-02,5.826193011266476290e-02,-3.304069468418756317e-02
5.974191151258818194e-02,1.076265727935829183e-02,7.969241171276874799e-03
6.228943822615299469e-02,2.616429353474805306e-02,-9.701659154684744027e-04
5.674658345521250286e-02,-1.289274457787081309e-02,-7.000913087010980640e-02
-1.879187156131210262e-02,6.034213322174903499e-02,1.135467139446148938e-01
-3.444245563026884088e-02,2.614196195995295569e-02,-2.236170241120823479e-02
5.006852495091152627e-02,2.108533391288894276e-02,-1.949339347956159305e-02
-4.707861321291903489e-03,-2.554795570057079301e-02,4.709033455508050692e-02
-2.162691035013927093e-02,-7.547167362664193579e-02,1.130813561490319474e-01
-8.250049528717871838e-02,1.816699698378921798e-02,-7.993478991116355695e-03
4.059097328895689555e-02,-1.658987035600148138e-02,-1.270443041892985875e-02
-3.153341461170106053e-03,-2.675868613367715296e-02,1.938583543997772149e-02
-1.609427355792686712e-02,-5.991736527370938870e-02,-1.493319966266801885e-02
-7.325144105315183063e-02,-4.827175128136385052e-02,-6.268711997226292243e-02
-2.804972466032135472e-02,1.024855508132710251e-02,1.001137198861424410e-01
-1.400852586309801230e-02,-4.455366681495412373e-02,4.688553242197291988e-04
3.639087907534596655e-02,-2.332906655466968418e-02,8.962156388211305752e-03
4.248989469076414754e-03,5.474297042779859707e-02,1.810444508758679918e-02
-2.757098018587676377e-02,-8.537548410167167257e-02,-2.278596651590729383e-02
4.116241244501150920e-02,-1.039905415198853593e-02,-2.532380130909941615e-02
-6.893912631157716672e-03,-4.175152345189251518e-02,6.552380310389536132e-03
1.260038589005021449e-02,5.442753799442560936e-02,3.028241282709485255e-03
-8.731551778985590165e-03,-5.104670190380587030e-02,-2.028225579277763771e-02
-3.889802184648037675e-02,8.159046083732929971e-03,6.661706074485623796e-02
-5.182358193770239541e-02,-5.474169958213835618e-02,-3.927002871251161070e-02
-9.841988371659083149e-03,-3.593861220578375981e-02,-3.483563454724397657e-02
-2.440636969901050987e-02,-2.394371978410948093e-02,1.538002175410200373e-02
4.921546491999193723e-02,-3.495824965759330299e-02,-6.672360684201660008e-02
-2.006259480899471107e-02,5.213243086005100307e-02,2.748416256747156228e-02
3.075477523427131571e-02,4.783157881943458228e-02,5.689663761409394921e-02
-8.267998605508003473e-02,3.003130146026892697e-02,5.394227810140928871e-03
4.404802062011176078e-02,-1.001552151518736748e-03,7.830517730804884002e-02
-4.561392170682946126e-03,-5.770607186410735973e-02,1.424314635879637796e-02
-6.258292334064297080e-02,-3.035637457797843095e-02,-8.290898695659304485e-02
4.251744198823344950e-02,8.403701726895805232e-03,5.399866377854621591e-02
8.332937878792643152e-03,-8.706162322137284137e-02,4.335382504967213481e-03
3.944966977725979096e-02,-1.038189407095965397e-02,1.667566526642346239e-02
3.170309596342470865e-02,-1.345307552098131028e-02,-5.691325232293859004e-02
1.067206099564193579e-02,2.036861306323725293e-02,5.628932202765614401e-02
-3.396954599915057507e-03,-2.095777794341078734e-02,-5.277219716436250957e-02
2.399182658310924574e-02,4.384186971992030252e-03,-3.872040312248228172e-02
-4.136148484137924797e-02,8.567226642168181139e-02,-3.763503210329061099e-02
1.332059886695812281e-02,6.686056634474717153e-02,2.955513473696251905e-02
8.895823795485610641e-02,-6.566452788237127358e-02,-3.079588017296455704e-02
2.567086201084283273e-02,-3.455219232498374371e-02,9.449253734190969645e-03
2.510754672635135548e-02,4.417172891825396630e-02,-4.464468347096478378e-03
3.330726814831012905e-02,-2.797559517236423293e-02,5.613449611543910867e-02
-1.897590363216866347e-02,3.265045465497833088e-02,-3.745067969207793723e-02
1.533474972592484449e-02,-1.019976290549078762e-01,2.422976931567396783e-02
-6.350157641022118049e-02,3.146620556513559513e-02,-3.935762714271550528e-02
-2.990797170019311377e-02,1.852448211626292474e-02,2.845241533158951539e-03
1.176175098965800796e-02,8.395906161705730952e-02,-1.162232249294789521e-01
-1.755163291030381253e-02,3.473209835648343596e-02,-2.434104759341289975e-02
2.663300641267610930e-02,-6.025398241343410052e-03,-7.258166136538973627e-03
5.297055619592372366e-02,1.891946271905439736e-02,-1.319878470101587369e-02
-2.320042642596503724e-02,5.320155647036125396e-02,4.309249956467164910e-02
4.050139550521632097e-03,-1.364219548721313721e-02,-5.144686225959918535e-02
-4.636605507916379681e-02,1.128350446781367505e-01,-1.763442383256016641e-02
-9.316753763048529410e-03,8.468690966657507757e-02,3.256374921836165115e-02
-3.732619678592808549e-02,-3.489807140617340320e-02,-2.517867663571314932e-02
9.061874233953291780e-03,-4.949031263602413772e-02,-5.374821816111739758e-02
-4.431698476116635588e-02,2.571392795015844251e-02,1.036467803049169641e-02
-4.711909420978952628e-02,1.707313771518704018e-02,-1.841980974870680021e-02
-9.300956024693513707e-03,2.702948710190284168e-02,3.694710013543849730e-02
-4.370023201104629440e-02,3.529874390809830537e-02,-8.035435540834853785e-02
1.124644731345285226e-01,1.473397329642138227e-03,2.410606220657521975e-02
1.887311964025688987e-02,7.185807873693833558e-02,-6.275232948062292246e-03
-1.548434826718284030e-02,-5.197152437414664233e-02,-1.005703173872725398e-02
4.218515410832864715e-02,-4.173374058455597141e-02,-4.480445431249614578e-03
-7.800600255714920141e-03,1.352591995485503788e-02,4.677651838316932570e-02
5.813567757470366332e-03,3.763961222384142914e-03,3.481540693751664778e-02
5.844648913339628785e-03,-1.156322233496150098e-02,-2.563977515059631326e-02
2.433367900065002212e-02,2.030451072047257527e-02,-2.789958951035263063e-02
-2.715452021098135535e-02,-7.176968568358585432e-02,-3.587589392789650167e-02
7.216449733609218986e-02,2.347812935094495401e-02,-4.633351115932370090e-02
-2.508180861958893976e-02,-4.572103451581713968e-02,-3.184640930470481607e-02
-7.640847766319223966e-02,5.904384669505177360e-03,-4.137689135433376963e-02
-1.003686594221419592e-01,-2.097383305345588284e-02,-9.236903409768235096e-02
-5.536719832219542253e-02,4.048143733845182418e-02,1.799412864174622373e-02
-5.518930195952447687e-02,6.906110329623751931e-02,-1.332797347279839409e-02
-3.037572061395278286e-02,-4.889765480339467590e-02,3.016997460566549563e-02
1.233031560839421316e-02,-9.293243035655514642e-03,4.613430221241828638e-02
-6.612495525662334672e-02,9.372086793467387933e-02,1.311019144853158361e-02
3.005942833144471457e-02,-5.221623280223949837e-02,-9.676062295030273680e-03
3.064580841851576205e-03,7.526008781372710288e-02,-1.177314947427748766e-05
5.536413791826095589e-03,4.899025855439796684e-02,1.046930245938492016e-01
-7.561205845391101577e-02,-4.979178287612529008e-02,6.747738992739464592e-02
2.213066789547448593e-02,1.046839079376779037e-02,1.478186396349789530e-02
-6.535418160546256627e-02,6.705462820647056787e-02,7.400848338844702445e-02
-1.214075882805706365e-03,2.855802191488813688e-02,2.266485569626303792e-02
1.123141464158746231e-02,8.545822353066696853e-02,-1.034150583211437963e-01
-2.762967885783314606e-02,-2.668678096851753029e-02,-1.687192585693386357e-02
-6.933741414421289162e-02,3.224642049994440318e-02,-1.693178621252693777e-02
-1.142826957028115174e-02,8.747697371882513090e-03,-4.755560246781452560e-02
6.377096484145410027e-04,-3.293758816778682161e-04,1.770651817459407973e-02
4.720982278757263756e-02,-6.614392855606680832e-02,-2.932006009989568396e-02
-7.055671790074120875e-02,3.100049340783779528e-02,4.830908767326470669e-03
-1.308175072484918551e-02,-6.177993869420599429e-03,-5.637845667076647055e-02
-4.850839364163330586e-02,6.581716433409426359e-02,-2.583638018706435266e-02
-4.428382511281954426e-02,4.705603977932094201e-02,6.978103067100988044e-02
9.891800827085158246e-03,-3.558917976417318857e-02,-2.816668774086255461e-02
-1.199808275915638725e-02,3.652502375674785556e-02,5.487899942463749653e-02
6.192389600368859714e-02,2.486393476467750954e-02,3.587138494038921016e-02
-4.416616658868112444e-02,-5.462565960093531542e-02,7.522019772075831667e-02
4.722034402424163391e-03,-1.273130024784716596e-01,-2.956324511038546307e-02
-1.695437539826586196e-02,7.134230419995019057e-02,-4.636380455227846753e-02
-4.329981113478963139e-02,5.917513947200285507e-02,-7.318275286710760122e-03
-3.195824387722658727e-02,3.387352650415255406e-02,-8.382561218820756832e-02
-9.099311604561662048e-02,4.896289063479503795e-02,5.527202553932352574e-02
4.483848729627547269e-02,7.728646921091007760e-02,4.812392029833075652e-02
3.571592307475413702e-02,-5.776357713875212435e-02,-2.875995914438726070e-02
-7.876929436987024219e-03,-3.147792592744215966e-04,-1.892491323618756063e-02
3.598481786606270300e-02,7.702921365569898732e-03,-4.863475246385404183e-03
2.437059826061308693e-02,3.647654718768440774e-02,2.773422294542253475e-02
-7.727474418559542035e-02,-3.590672872431275447e-02,1.517910663384638287e-02
1.922667716492242398e-02,-3.798433693076985057e-02,-4.679602648909794715e-02
-7.840799940136432278e-02,-7.974610341373029876e-02,-2.065500665986254314e-02
-8.731925677297723565e-02,1.105441354034342530e-02,2.430636916792603200e-02
3.940447634951679129e-02,-9.623743008070707872e-03,-3.840961108721375333e-02
-6.479054806734620142e-02,-6.015517894719069059e-02,-1.767955832376498157e-02
-1.002032898210668960e-01,-1.126604044959411688e-01,-8.114952600989535844e-03
-7.488051734011897179e-03,4.086976274126200340e-04,-6.036877679517332895e-02
4.891048961590952100e-03,1.449251083734320530e-02,-1.414332993585111498e-02
-1.510405415849602924e-02,-7.800670089531100415e-02,-4.496683985132210459e-02
-4.277814745798946480e-03,4.656688539872830962e-02,-9.616263101701656713e-02
7.972510890375207604e-02,-4.154835156396970847e-02,1.393201082603859504e-02
5.462735981677986630e-02,2.857193996491821236e-02,-9.190542978718617764e-03
-3.906198346938768301e-02,9.806484164450532046e-03,-5.501690380954478432e-02
-2.074576224287123100e-02,1.038080617626834304e-02,9.269881284512402134e-03
-2.553409334464009847e-02,-2.329140547315379506e-02,-2.823365700802075995e-02
3.205389915988280519e-02,1.854964918888873590e-02,2.384342723162600347e-02
8.547656821602521438e-02,6.877854929481676260e-02,-4.945725987893843240e-02
-1.037253726591890260e-02,1.352441409116966579e-02,-1.590471594025967550e-02
1.737695404644120159e-02,-2.739516327489547112e-02,-6.845062235666231343e-02
1.088476025409838670e-02,-1.200452483507908064e-01,2.141412601895258810e-02
-1.403596127771624541e-02,-3.184213756005446153e-03,-8.106723135351698306e-03
2.510750225467936469e-02,-2.414987180110868270e-02,9.102498570069703088e-02
6.355793546476545819e-02,1.118853267074510632e-01,7.960422007390430266e-03
-2.056426716788462006e-02,-3.147610328849503869e-02,-6.675836886434376172e-02
-2.590683678489298994e-02,2.156526256542229403e-02,-3.486872210238180399e-03
3.499684281975121852e-02,8.351732097105109276e-03,-1.480169757490052557e-02
4.723654410803549558e-02,-6.031240541559357467e-03,-9.356633417951079612e-02
2.769051766640226453e-02,1.043167557889243926e-03,4.617719256249492449e-02
-8.400824444144144865e-02,2.101848573182298410e-02,-7.973919440058120645e-02
-3.537883331374352958e-02,-1.429311959283237170e-02,1.773462527162743968e-02
-4.782724074628894734e-02,-3.659578062694297806e-02,3.596650475774511996e-02
-1.396178468943800634e-02,1.235008964948157775e-02,-2.804731604341278300e-02
2.121349374808733160e-02,-3.732379173900023800e-02,2.379169514191371501e-02
-3.375060649833953874e-02,-6.531934826085841750e-02,-5.700972627799093945e-02
-3.924754673340754424e-02,3.370142817784316236e-02,1.828704772920779903e-02
6.536583820303298875e-02,3.034322886071373279e-02,-1.228930083060609559e-02
1.038285431539173742e-02,5.353555796179346182e-02,-3.481029424923694215e-02
-4.007656354826936301e-02,1.096835152634730547e-02,-2.464569942494501328e-02
-6.375249847763282685e-02,1.144602458208852577e-02,7.042435110341348226e-02
9.682462949989341719e-03,-8.282300483634409682e-02,-5.949258392854635258e-02
1.615907247673079028e-02,-3.753884214785226797e-02,-1.660927629350270399e-02
-4.083842206659152319e-02,3.523651923880496972e-02,1.577512126821005098e-02
-2.319703506945633778e-02,1.959660316356170995e-02,-1.547547816323074747e-02
-1.796447285249578793e-02,4.558188295234340964e-02,1.325855189905010036e-02
1.894477276206786923e-02,1.847929731358555552e-02,-4.665000076304568442e-03
-3.466019306959347568e-02,-2.697109768320225809e-02,-7.195139720590704863e-03
3.245259889082131172e-02,2.319876692080415428e-02,-3.901929801917061735e-02
1.263369930865256181e-02,-1.551474445938893186e-03,3.812080915448185642e-02
