ref_accel_x (m/s^2),ref_accel_y (m/s^2),ref_accel_z (m/s^2)
9.999999999999997780e-02,0.000000000000000000e+00,-9.793600816314521396e+00
1.899999999999999467e-01,-7.391087325792854207e-08,-9.793600816314363300e+00
2.709999999999999076e-01,-2.143415324485668089e-07,-9.793600816313269064e+00
3.438999999999998725e-01,-4.146399989813098033e-07,-9.793600816309846024e+00
4.095099999999998741e-01,-6.688194921280290694e-07,-9.793600816302308942e+00
4.685589999999998922e-01,-9.714919092378236796e-07,-9.793600816288643429e+00
5.217030999999998642e-01,-1.317807957930041614e-06,-9.793600816266728515e+00
5.695327899999997889e-01,-1.703403275067799894e-06,-9.793600816234425466e+00
6.125795109999998544e-01,-2.124349933833999554e-06,-9.793600816189631075e+00
6.513215598999998468e-01,-2.577112800099620093e-06,-9.793600816130330955e+00
6.861894039099998288e-01,-3.058510253155096656e-06,-9.793600816054626179e+00
7.175704635189998903e-01,-3.565678834368481033e-06,-9.793600815960749273e+00
7.458134171670999235e-01,-4.096041430977750442e-06,-9.793600815847078422e+00
7.712320754503899645e-01,-4.647278641503832437e-06,-9.793600815712121488e+00
7.941088679053509569e-01,-5.217303004622310339e-06,-9.793600815554544425e+00
8.146979811148158390e-01,-5.804235805147935597e-06,-9.793600815373139312e+00
8.332281830033342329e-01,-6.406386199420671075e-06,-9.793600815166831453e+00
8.499053647030008207e-01,-7.022232428153123839e-06,-9.793600814934665166e+00
8.649148282327007164e-01,-7.650404907993240748e-06,-9.793600814675802013e+00
8.784233454094306781e-01,-8.289671013930709006e-06,-9.793600814389501252e+00
8.905810108684876214e-01,-8.938921383462744517e-06,-9.793600814075119843e+00
9.015229097816388482e-01,-9.597157590343267610e-06,-9.793600813732098231e+00
9.113706188034749189e-01,-1.026348105095720964e-05,-9.793600813359956803e+00
9.202335569231274714e-01,-1.093708304005734430e-05,-9.793600812958279889e+00
9.282102012308147687e-01,-1.161723570492746322e-05,-9.793600812526712218e+00
9.353891811077332807e-01,-1.230328397812924253e-05,-9.793600812064957140e+00
9.418502629969599527e-01,-1.299463829897441047e-05,-9.793600811572758857e+00
9.476652366972639907e-01,-1.369076806284970771e-05,-9.793600811049911314e+00
9.528987130275375916e-01,-1.439119572560936314e-05,-9.793600810496236875e+00
9.576088417247837770e-01,-1.509549149752830176e-05,-9.793600809911591654e+00
9.618479575523053438e-01,-1.580326856786007044e-05,-9.793600809295869070e+00
9.656631617970747872e-01,-1.651417880693893919e-05,-9.793600808648967870e+00
9.690968456173673085e-01,-1.722790889807180524e-05,-9.793600807970822331e+00
9.721871610556305221e-01,-1.794417685624093850e-05,-9.793600807261375607e+00
9.749684449500675143e-01,-1.866272889493639413e-05,-9.793600806520593949e+00
9.774716004550607629e-01,-1.938333660630524145e-05,-9.793600805748443605e+00
9.797244404095546422e-01,-2.010579442328585037e-05,-9.793600804944917471e+00
9.817519963685992224e-01,-2.082991733552874605e-05,-9.793600804110003111e+00
9.835767967317392557e-01,-2.155553883372537981e-05,-9.793600803243700526e+00
9.852191170585653524e-01,-2.228250905950404775e-05,-9.793600802346013268e+00
9.866972053527087727e-01,-2.301069314033616861e-05,-9.793600801416957324e+00
9.880274848174378510e-01,-2.373996969095198338e-05,-9.793600800456545130e+00
9.892247363356940770e-01,-2.447022946461468597e-05,-9.793600799464794449e+00
9.903022627021246249e-01,-2.520137413926709164e-05,-9.793600798441724820e+00
9.912720364319121957e-01,-2.593331522506366979e-05,-9.793600797387352230e+00
9.921448327887210095e-01,-2.666597308114943040e-05,-9.793600796301706879e+00
9.929303495098489307e-01,-2.739927603076078218e-05,-9.793600795184808305e+00
9.936373145588640599e-01,-2.813315956481645815e-05,-9.793600794036679602e+00
9.942735831029776428e-01,-2.886756562514926382e-05,-9.793600792857345638e+00
9.948462247926799229e-01,-2.960244195941464461e-05,-9.793600791646827730e+00
9.953616023134119750e-01,-3.033774154050845228e-05,-9.793600790405152523e+00
9.958254420820707997e-01,-3.107342204404288063e-05,-9.793600789132336004e+00
9.962428978738636642e-01,-3.180944537807485397e-05,-9.793600787828408372e+00
9.966186080864772867e-01,-3.254577725986153579e-05,-9.793600786493383836e+00
9.969567472778295691e-01,-3.328238683494027806e-05,-9.793600785127285491e+00
9.972610725500465900e-01,-3.401924633430068235e-05,-9.793600783730131099e+00
9.975349652950419310e-01,-3.475633076583928272e-05,-9.793600782301940200e+00
9.977814687655377490e-01,-3.549361763666892156e-05,-9.793600780842730558e+00
9.980033218889839963e-01,-3.623108670319707069e-05,-9.793600779352519936e+00
9.982029897000855856e-01,-3.696871974619638125e-05,-9.793600777831318993e+00
9.983826907300770159e-01,-3.770650036836820036e-05,-9.793600776279149045e+00
9.985444216570693587e-01,-3.844441381214966694e-05,-9.793600774696020750e+00
9.986899794913624007e-01,-3.918244679574012712e-05,-9.793600773081950095e+00
9.988209815422262050e-01,-3.992058736552493519e-05,-9.793600771436944186e+00
9.989388833880036289e-01,-4.065882476325684535e-05,-9.793600769761017233e+00
9.990449950492032993e-01,-4.139714930651925952e-05,-9.793600768054181671e+00
9.991404955442829694e-01,-4.213555228114319032e-05,-9.793600766316446382e+00
9.992264459898546614e-01,-4.287402584438246414e-05,-9.793600764547820248e+00
9.993038013908691619e-01,-4.361256293777148645e-05,-9.793600762748315702e+00
9.993734212517821902e-01,-4.435115720869713314e-05,-9.793600760917934522e+00
9.994360791266039268e-01,-4.508980293981351630e-05,-9.793600759056689142e+00
9.994924712139435785e-01,-4.582849498551532636e-05,-9.793600757164584891e+00
9.995432240925492540e-01,-4.656722871476365024e-05,-9.793600755241628875e+00
9.995889016832942842e-01,-4.730599995962947197e-05,-9.793600753287828198e+00
9.996300115149648891e-01,-4.804480496898253932e-05,-9.793600751303186414e+00
9.996670103634683890e-01,-4.878364036681163718e-05,-9.793600749287708851e+00
9.997003093271215057e-01,-4.952250311471253412e-05,-9.793600747241400839e+00
9.997302783944093107e-01,-5.026139047812742424e-05,-9.793600745164267707e+00
9.997572505549683353e-01,-5.100029999596015454e-05,-9.793600743056313007e+00
9.997815254994715239e-01,-5.173922945323019992e-05,-9.793600740917540293e+00
9.998033729495243715e-01,-5.247817685646095535e-05,-9.793600738747953116e+00
9.998230356545719788e-01,-5.321714041152944482e-05,-9.793600736547555030e+00
9.998407320891147254e-01,-5.395611850373090629e-05,-9.793600734316347811e+00
9.998566588802032529e-01,-5.469510967983702787e-05,-9.793600732054335012e+00
9.998709929921829609e-01,-5.543411263194823372e-05,-9.793600729761520185e+00
9.998838936929647092e-01,-5.617312618296085511e-05,-9.793600727437905107e+00
9.998955043236682494e-01,-5.691214927348751875e-05,-9.793600725083489777e+00
9.999059538913014356e-01,-5.765118095008555044e-05,-9.793600722698281302e+00
9.999153585021712809e-01,-5.839022035466242926e-05,-9.793600720282277905e+00
9.999238226519541195e-01,-5.912926671494089353e-05,-9.793600717835479585e+00
9.999314403867587409e-01,-5.986831933587727058e-05,-9.793600715357888120e+00
9.999382963480828446e-01,-6.060737759193825740e-05,-9.793600712849508838e+00
9.999444667132745268e-01,-6.134644092014978885e-05,-9.793600710310339963e+00
9.999500200419471074e-01,-6.208550881384113009e-05,-9.793600707740383271e+00
9.999550180377524411e-01,-6.282458081701459442e-05,-9.793600705139640539e+00
9.999595162339771637e-01,-6.356365651927817879e-05,-9.793600702508111766e+00
9.999635646105794473e-01,-6.430273555128499614e-05,-9.793600699845796953e+00
9.999672081495214471e-01,-6.504181758062883834e-05,-9.793600697152703205e+00
9.999704873345692802e-01,-6.578090230815001477e-05,-9.793600694428819864e+00
9.999734386011123188e-01,-6.651998946461074123e-05,-9.793600691674159364e+00
9.999760947410011314e-01,-6.725907880770297235e-05,-9.793600688888712824e+00
9.999784852669010293e-01,-6.799817011935541957e-05,-9.793600686072489125e+00
9.999806367402108709e-01,-6.873726320330980361e-05,-9.793600683225481163e+00
9.999825730661897616e-01,-6.947635788293965659e-05,-9.793600680347694265e+00
9.999843157595708076e-01,-7.021545399928708932e-05,-9.793600677439128432e+00
9.999858841836136714e-01,-7.095455140929590775e-05,-9.793600674499780112e+00
9.999872957652522487e-01,-7.169364998422154912e-05,-9.793600671529658186e+00
9.999885661887270016e-01,-7.243274960819973184e-05,-9.793600668528751996e+00
9.999897095698543348e-01,-7.317185017695866721e-05,-9.793600665497070423e+00
9.999907386128689124e-01,-7.391095159665958655e-05,-9.793600662434609916e+00
9.999916647515819657e-01,-7.465005378285360319e-05,-9.793600659341370473e+00
9.999924982764237802e-01,-7.538915665954256295e-05,-9.793600656217355649e+00
9.999932484487813467e-01,-7.612826015833417965e-05,-9.793600653062563666e+00
9.999939236039031565e-01,-7.686736421768123684e-05,-9.793600649876992748e+00
9.999945312435127853e-01,-7.760646878219728010e-05,-9.793600646660644671e+00
9.999950781191615512e-01,-7.834557380204035650e-05,-9.793600643413521212e+00
9.999955703072453961e-01,-7.908467923235866200e-05,-9.793600640135620594e+00
9.999960132765208787e-01,-7.982378503279149681e-05,-9.793600636826941042e+00
9.999964119488687908e-01,-8.056289116702021588e-05,-9.793600633487489660e+00
9.999967707539818562e-01,-8.130199760236398419e-05,-9.793600630117255790e+00
9.999970936785836928e-01,-8.204110430941589135e-05,-9.793600626716250090e+00
9.999973843107252680e-01,-8.278021126171576649e-05,-9.793600623284469009e+00
9.999976458796527856e-01,-8.351931843545532951e-05,-9.793600619821910769e+00
9.999978812916875404e-01,-8.425842580921309006e-05,-9.793600616328575370e+00
9.999980931625187530e-01,-8.499753336371566046e-05,-9.793600612804464589e+00
9.999982838462668777e-01,-8.573664108162289393e-05,-9.793600609249580202e+00
9.999984554616402344e-01,-8.647574894733461197e-05,-9.793600605663915104e+00
9.999986099154761776e-01,-8.721485694681657642e-05,-9.793600602047478176e+00
9.999987489239285932e-01,-8.795396506744397125e-05,-9.793600598400264090e+00
9.999988740315357560e-01,-8.869307329786029371e-05,-9.793600594722274622e+00
9.999989866283821582e-01,-8.943218162785073302e-05,-9.793600591013509771e+00
9.999990879655439313e-01,-9.017129004822788195e-05,-9.793600587273969538e+00
9.999991791689895049e-01,-9.091039855072891376e-05,-9.793600583503652146e+00
9.999992612520905988e-01,-9.164950712792338441e-05,-9.793600579702561149e+00
9.999993351268815500e-01,-9.238861577312964049e-05,-9.793600575870694769e+00
9.999994016141934283e-01,-9.312772448034032106e-05,-9.793600572008051230e+00
9.999994614527740744e-01,-9.386683324415459498e-05,-9.793600568114632310e+00
9.999995153074966447e-01,-9.460594205971777082e-05,-9.793600564190439783e+00
9.999995637767469248e-01,-9.534505092266643629e-05,-9.793600560235471875e+00
9.999996073990722323e-01,-9.608415982907957424e-05,-9.793600556249728584e+00
9.999996466591649646e-01,-9.682326877543413746e-05,-9.793600552233208134e+00
9.999996819932485126e-01,-9.756237775856535337e-05,-9.793600548185912302e+00
9.999997137939236058e-01,-9.830148677563086399e-05,-9.793600544107844641e+00
9.999997424145312674e-01,-9.904059582407844387e-05,-9.793600539998996268e+00
9.999997681730781185e-01,-9.977970490161709250e-05,-9.793600535859374290e+00
9.999997913557703288e-01,-1.005188140061908237e-04,-9.793600531688978705e+00
9.999998122201932960e-01,-1.012579231359551386e-04,-9.793600527487805962e+00
9.999998309981739109e-01,-1.019970322892559919e-04,-9.793600523255861390e+00
9.999998478983564976e-01,-1.027361414646106423e-04,-9.793600518993139659e+00
9.999998631085208478e-01,-1.034752506606906168e-04,-9.793600514699640769e+00
9.999998767976687741e-01,-1.042143598763061525e-04,-9.793600510375370050e+00
9.999998891179019411e-01,-1.049534691103924140e-04,-9.793600506020318619e+00
9.999999002061117359e-01,-1.056925783619970516e-04,-9.793600501634495359e+00
9.999999101855006067e-01,-1.064316876302688310e-04,-9.793600497217898493e+00
9.999999191669505239e-01,-1.071707969144476046e-04,-9.793600492770528021e+00
9.999999272502554382e-01,-1.079099062138551361e-04,-9.793600488292378614e+00
9.999999345252298388e-01,-1.086490155278870099e-04,-9.793600483783452049e+00
9.999999410727068438e-01,-1.093881248560051093e-04,-9.793600479243753654e+00
9.999999469654361484e-01,-1.101272341977312200e-04,-9.793600474673278100e+00
9.999999522688924891e-01,-1.108663435526407277e-04,-9.793600470072028941e+00
9.999999570420032846e-01,-1.116054529203574277e-04,-9.793600465440002623e+00
9.999999613378030006e-01,-1.123445623005488224e-04,-9.793600460777204475e+00
9.999999652040226783e-01,-1.130836716929214318e-04,-9.793600456083627392e+00
9.999999686836203994e-01,-1.138227810972171751e-04,-9.793600451359276704e+00
9.999999718152583483e-01,-1.145618905132096438e-04,-9.793600446604150633e+00
9.999999746337324691e-01,-1.153009999407010659e-04,-9.793600441818247404e+00
9.999999771703592666e-01,-1.160401093795193514e-04,-9.793600437001574122e+00
9.999999794533233066e-01,-1.167792188295155580e-04,-9.793600432154121904e+00
9.999999815079909649e-01,-1.175183282905615872e-04,-9.793600427275894305e+00
9.999999833571918684e-01,-1.182574377625480837e-04,-9.793600422366893099e+00
9.999999850214726926e-01,-1.189965472453825650e-04,-9.793600417427114735e+00
9.999999865193254234e-01,-1.197356567389877547e-04,-9.793600412456560989e+00
9.999999878673928588e-01,-1.204747662433000100e-04,-9.793600407455235413e+00
9.999999890806535729e-01,-1.212138757582679940e-04,-9.793600402423130902e+00
9.999999901725882268e-01,-1.219529852838514963e-04,-9.793600397360254561e+00
9.999999911553294485e-01,-1.226920948200201458e-04,-9.793600392266601062e+00
9.999999920397965036e-01,-1.234312043667526785e-04,-9.793600387142172181e+00
9.999999928358168644e-01,-1.241703139240358535e-04,-9.793600381986967918e+00
9.999999935522351224e-01,-1.249094234918636265e-04,-9.793600376800988272e+00
9.999999941970115769e-01,-1.256485330702365667e-04,-9.793600371584235020e+00
9.999999947773103859e-01,-1.263876426591611522e-04,-9.793600366336706387e+00
9.999999952995793917e-01,-1.271267522586490110e-04,-9.793600361058398818e+00
9.999999957696213970e-01,-1.278658618687167044e-04,-9.793600355749321196e+00
9.999999961926592240e-01,-1.286049714893849948e-04,-9.793600350409464639e+00
9.999999965733933349e-01,-1.293440811206785748e-04,-9.793600345038832700e+00
9.999999969160540125e-01,-1.300831907626254441e-04,-9.793600339637428931e+00
9.999999972244486557e-01,-1.308223004152569361e-04,-9.793600334205246227e+00
9.999999975020037457e-01,-1.315614100786070405e-04,-9.793600328742291694e+00
9.999999977518033711e-01,-1.323005197527124034e-04,-9.793600323248561779e+00
9.999999979766229785e-01,-1.330396294376118662e-04,-9.793600317724054705e+00
9.999999981789606807e-01,-1.337787391333463847e-04,-9.793600312168772248e+00
9.999999983610645682e-01,-1.345178488399586766e-04,-9.793600306582717963e+00
9.999999985249581336e-01,-1.352569585574931669e-04,-9.793600300965881189e+00
9.999999986724623646e-01,-1.359960682859957446e-04,-9.793600295318276139e+00
9.999999988052161726e-01,-1.367351780255138163e-04,-9.793600289639892154e+00
9.999999989246945997e-01,-1.374742877760957104e-04,-9.793600283930738115e+00
9.999999990322251398e-01,-1.382133975377910834e-04,-9.793600278190803365e+00
9.999999991290026147e-01,-1.389525073106504319e-04,-9.793600272420095010e+00
9.999999992161023865e-01,-1.396916170947252555e-04,-9.793600266618613048e+00
9.999999992944921257e-01,-1.404307268900677045e-04,-9.793600260786350375e+00
9.999999993650429131e-01,-1.411698366967307691e-04,-9.793600254923319426e+00
9.999999994285385663e-01,-1.419089465147680090e-04,-9.793600249029511318e+00
9.999999994856847430e-01,-1.426480563442336614e-04,-9.793600243104927827e+00
9.999999995371162687e-01,-1.433871661851823158e-04,-9.793600237149567178e+00
9.999999995834046862e-01,-1.441262760376692395e-04,-9.793600231163431147e+00
9.999999996250642509e-01,-1.448653859017498893e-04,-9.793600225146523286e+00
9.999999996625578147e-01,-1.456044957774802915e-04,-9.793600219098840043e+00
9.999999996963020443e-01,-1.463436056649167704e-04,-9.793600213020377865e+00
9.999999997266718621e-01,-1.470827155641159212e-04,-9.793600206911142081e+00
9.999999997540046648e-01,-1.478218254751345834e-04,-9.793600200771132691e+00
9.999999997786042094e-01,-1.485609353980299214e-04,-9.793600194600344366e+00
9.999999998007438329e-01,-1.493000453328593167e-04,-9.793600188398785988e+00
9.999999998206694496e-01,-1.500391552796803674e-04,-9.793600182166448676e+00
9.999999998386025490e-01,-1.507782652385507261e-04,-9.793600175903337757e+00
9.999999998547423052e-01,-1.515173752095283705e-04,-9.793600169609451456e+00
9.999999998692680192e-01,-1.522564851926712782e-04,-9.793600163284787996e+00
9.999999998823412284e-01,-1.529955951880377794e-04,-9.793600156929350931e+00
9.999999998941071500e-01,-1.537347051956860144e-04,-9.793600150543136706e+00
9.999999999046964572e-01,-1.544738152156745572e-04,-9.793600144126150653e+00
9.999999999142268337e-01,-1.552129252480617921e-04,-9.793600137678387441e+00
9.999999999228041947e-01,-1.559520352929063473e-04,-9.793600131199848846e+00
9.999999999305237974e-01,-1.566911453502669324e-04,-9.793600124690534869e+00
9.999999999374714621e-01,-1.574302554202023112e-04,-9.793600118150447287e+00
9.999999999437243492e-01,-1.581693655027711931e-04,-9.793600111579586098e+00
9.999999999493519587e-01,-1.589084755980325588e-04,-9.793600104977944198e+00
9.999999999544167961e-01,-1.596475857060452805e-04,-9.793600098345532246e+00
9.999999999589751498e-01,-1.603866958268683658e-04,-9.793600091682344910e+00
9.999999999630776459e-01,-1.611258059605607683e-04,-9.793600084988378640e+00
9.999999999667699146e-01,-1.618649161071815498e-04,-9.793600078263638764e+00
9.999999999700929232e-01,-1.626040262667897724e-04,-9.793600071508125282e+00
9.999999999730836420e-01,-1.633431364394445791e-04,-9.793600064721832865e+00
9.999999999757752667e-01,-1.640822466252050591e-04,-9.793600057904768619e+00
9.999999999781977733e-01,-1.648213568241304098e-04,-9.793600051056927214e+00
9.999999999803780293e-01,-1.655604670362798556e-04,-9.793600044178310426e+00
9.999999999823402375e-01,-1.662995772617124857e-04,-9.793600037268920033e+00
9.999999999841061582e-01,-1.670386875004876059e-04,-9.793600030328754258e+00
9.999999999856955535e-01,-1.677777977526644679e-04,-9.793600023357814877e+00
9.999999999871259648e-01,-1.685169080183022148e-04,-9.793600016356098337e+00
9.999999999884133794e-01,-1.692560182974602067e-04,-9.793600009323606415e+00
9.999999999895720082e-01,-1.699951285901977224e-04,-9.793600002260339110e+00
9.999999999906148407e-01,-1.707342388965739594e-04,-9.793599995166296424e+00
9.999999999915533122e-01,-1.714733492166483047e-04,-9.793599988041480131e+00
9.999999999923979699e-01,-1.722124595504799830e-04,-9.793599980885886680e+00
9.999999999931581396e-01,-1.729515698981284085e-04,-9.793599973699519623e+00
9.999999999938423700e-01,-1.736906802596528058e-04,-9.793599966482375407e+00
9.999999999944580997e-01,-1.744297906351125621e-04,-9.793599959234457586e+00
9.999999999950123231e-01,-1.751689010245669831e-04,-9.793599951955764382e+00
9.999999999955110352e-01,-1.759080114280753748e-04,-9.793599944646294020e+00
9.999999999959598984e-01,-1.766471218456971515e-04,-9.793599937306050052e+00
9.999999999963639086e-01,-1.773862322774915918e-04,-9.793599929935030701e+00
9.999999999967275066e-01,-1.781253427235180830e-04,-9.793599922533237745e+00
9.999999999970548004e-01,-1.788644531838359309e-04,-9.793599915100669406e+00
9.999999999973493425e-01,-1.796035636585045499e-04,-9.793599907637323909e+00
9.999999999976143528e-01,-1.803426741475832457e-04,-9.793599900143204806e+00
9.999999999978529397e-01,-1.810817846511313784e-04,-9.793599892618308544e+00
9.999999999980676568e-01,-1.818208951692083623e-04,-9.793599885062638677e+00
9.999999999982608356e-01,-1.825600057018735034e-04,-9.793599877476191651e+00
9.999999999984346966e-01,-1.832991162491862428e-04,-9.793599869858972795e+00
9.999999999985912380e-01,-1.840382268112058866e-04,-9.793599862210973228e+00
9.999999999987321253e-01,-1.847773373879917135e-04,-9.793599854532201832e+00
9.999999999988589128e-01,-1.855164479796032732e-04,-9.793599846822656829e+00
9.999999999989730437e-01,-1.862555585860998716e-04,-9.793599839082338221e+00
9.999999999990757393e-01,-1.869946692075408147e-04,-9.793599831311238901e+00
9.999999999991681099e-01,-1.877337798439855708e-04,-9.793599823509367752e+00
9.999999999992512656e-01,-1.884728904954934459e-04,-9.793599815676721221e+00
9.999999999993260946e-01,-1.892120011621238542e-04,-9.793599807813297531e+00
9.999999999993934852e-01,-1.899511118439361828e-04,-9.793599799919100235e+00
9.999999999994541033e-01,-1.906902225409897378e-04,-9.793599791994129333e+00
9.999999999995087263e-01,-1.914293332533439603e-04,-9.793599784038381273e+00
9.999999999995577982e-01,-1.921684439810581564e-04,-9.793599776051856054e+00
9.999999999996019850e-01,-1.929075547241917944e-04,-9.793599768034557229e+00
9.999999999996417310e-01,-1.936466654828042345e-04,-9.793599759986481246e+00
9.999999999996775912e-01,-1.943857762569547011e-04,-9.793599751907635209e+00
9.999999999997097877e-01,-1.951248870467028255e-04,-9.793599743798010238e+00
9.999999999997387645e-01,-1.958639978521078322e-04,-9.793599735657613437e+00
9.999999999997648548e-01,-1.966031086732291083e-04,-9.793599727486437700e+00
9.999999999997883915e-01,-1.973422195101260409e-04,-9.793599719284488359e+00
9.999999999998095968e-01,-1.980813303628580174e-04,-9.793599711051761858e+00
9.999999999998285816e-01,-1.988204412314844790e-04,-9.793599702788259975e+00
9.999999999998456790e-01,-1.995595521160647317e-04,-9.793599694493986263e+00
9.999999999998611111e-01,-2.002986630166581896e-04,-9.793599686168935392e+00
9.999999999998749889e-01,-2.010377739333241316e-04,-9.793599677813110915e+00
9.999999999998875344e-01,-2.017768848661220533e-04,-9.793599669426511056e+00
9.999999999998987477e-01,-2.025159958151113960e-04,-9.793599661009134039e+00
9.999999999999088507e-01,-2.032551067803513301e-04,-9.793599652560983415e+00
9.999999999999179545e-01,-2.039942177619014053e-04,-9.793599644082053857e+00
9.999999999999261702e-01,-2.047333287598209004e-04,-9.793599635572356021e+00
9.999999999999334976e-01,-2.054724397741693382e-04,-9.793599627031875698e+00
9.999999999999401590e-01,-2.062115508050059432e-04,-9.793599618460625322e+00
9.999999999999461542e-01,-2.069506618523901567e-04,-9.793599609858597788e+00
9.999999999999514833e-01,-2.076897729163813388e-04,-9.793599601225794871e+00
9.999999999999563682e-01,-2.084288839970389309e-04,-9.793599592562216571e+00
9.999999999999606981e-01,-2.091679950944222660e-04,-9.793599583867864666e+00
9.999999999999645839e-01,-2.099071062085907855e-04,-9.793599575142733826e+00
9.999999999999681366e-01,-2.106462173396037680e-04,-9.793599566386829380e+00
9.999999999999713562e-01,-2.113853284875206822e-04,-9.793599557600151329e+00
9.999999999999742428e-01,-2.121244396524008338e-04,-9.793599548782701447e+00
9.999999999999767963e-01,-2.128635508343036642e-04,-9.793599539934470855e+00
9.999999999999791278e-01,-2.136026620332885336e-04,-9.793599531055463103e+00
9.999999999999812372e-01,-2.143417732494148290e-04,-9.793599522145683522e+00
9.999999999999831246e-01,-2.150808844827418835e-04,-9.793599513205132112e+00
9.999999999999847899e-01,-2.158199957333291927e-04,-9.793599504233799991e+00
9.999999999999863443e-01,-2.165591070012360081e-04,-9.793599495231696039e+00
9.999999999999876765e-01,-2.172982182865217983e-04,-9.793599486198813153e+00
9.999999999999888978e-01,-2.180373295892459233e-04,-9.793599477135158438e+00
9.999999999999900080e-01,-2.187764409094676891e-04,-9.793599468040726563e+00
9.999999999999910072e-01,-2.195155522472465911e-04,-9.793599458915521083e+00
9.999999999999918954e-01,-2.202546636026419624e-04,-9.793599449759540221e+00
9.999999999999926725e-01,-2.209937749757131902e-04,-9.793599440572783976e+00
9.999999999999934497e-01,-2.217328863665196344e-04,-9.793599431355252349e+00
9.999999999999941158e-01,-2.224719977751207366e-04,-9.793599422106947117e+00
9.999999999999946709e-01,-2.232111092015757754e-04,-9.793599412827861173e+00
9.999999999999952260e-01,-2.239502206459442464e-04,-9.793599403518006952e+00
9.999999999999956701e-01,-2.246893321082854013e-04,-9.793599394177373796e+00
9.999999999999961142e-01,-2.254284435886587086e-04,-9.793599384805967034e+00
9.999999999999964473e-01,-2.261675550871235826e-04,-9.793599375403783114e+00
9.999999999999967804e-01,-2.269066666037393833e-04,-9.793599365970825588e+00
9.999999999999971134e-01,-2.276457781385653623e-04,-9.793599356507090903e+00
9.999999999999974465e-01,-2.283848896916610967e-04,-9.793599347012582612e+00
9.999999999999976685e-01,-2.291240012630858108e-04,-9.793599337487298939e+00
9.999999999999978906e-01,-2.298631128528990004e-04,-9.793599327931239884e+00
9.999999999999981126e-01,-2.306022244611599713e-04,-9.793599318344405447e+00
9.999999999999983347e-01,-2.313413360879281106e-04,-9.793599308726795627e+00
9.999999999999984457e-01,-2.320804477332628598e-04,-9.793599299078413978e+00
9.999999999999985567e-01,-2.328195593972235517e-04,-9.793599289399253394e+00
9.999999999999986677e-01,-2.335586710798695466e-04,-9.793599279689319204e+00
9.999999999999987788e-01,-2.342977827812603127e-04,-9.793599269948606079e+00
9.999999999999988898e-01,-2.350368945014551019e-04,-9.793599260177122900e+00
9.999999999999990008e-01,-2.357760062405134640e-04,-9.793599250374862564e+00
9.999999999999991118e-01,-2.365151179984945691e-04,-9.793599240541825068e+00
9.999999999999992228e-01,-2.372542297754579943e-04,-9.793599230678015743e+00
9.999999999999993339e-01,-2.379933415714630184e-04,-9.793599220783429260e+00
9.999999999999994449e-01,-2.387324533865690013e-04,-9.793599210858063842e+00
9.999999999999994449e-01,-2.394715652208354386e-04,-9.793599200901928370e+00
9.999999999999994449e-01,-2.402106770743215821e-04,-9.793599190915019292e+00
9.999999999999994449e-01,-2.409497889470868731e-04,-9.793599180897329504e+00
9.999999999999994449e-01,-2.416889008391907530e-04,-9.793599170848869662e+00
9.999999999999994449e-01,-2.424280127506925006e-04,-9.793599160769630885e+00
9.999999999999994449e-01,-2.431671246816515572e-04,-9.793599150659618502e+00
9.999999999999994449e-01,-2.439062366321272286e-04,-9.793599140518828960e+00
9.999999999999994449e-01,-2.446453486021789563e-04,-9.793599130347267590e+00
9.999999999999994449e-01,-2.453844605918661546e-04,-9.793599120144929060e+00
9.999999999999994449e-01,-2.461235726012481564e-04,-9.793599109911813372e+00
9.999999999999994449e-01,-2.468626846303843760e-04,-9.793599099647925854e+00
9.999999999999994449e-01,-2.476017966793340650e-04,-9.793599089353262954e+00
9.999999999999994449e-01,-2.483409087481568546e-04,-9.793599079027822896e+00
9.999999999999994449e-01,-2.490800208369118880e-04,-9.793599068671607455e+00
9.999999999999994449e-01,-2.498191329456586878e-04,-9.793599058284618408e+00
9.999999999999994449e-01,-2.505582450744565600e-04,-9.793599047866853979e+00
9.999999999999994449e-01,-2.512973572233649731e-04,-9.793599037418314168e+00
9.999999999999994449e-01,-2.520364693924431786e-04,-9.793599026938998975e+00
9.999999999999994449e-01,-2.527755815817506451e-04,-9.793599016428908399e+00
9.999999999999994449e-01,-2.535146937913467869e-04,-9.793599005888042441e+00
9.999999999999994449e-01,-2.542538060212908555e-04,-9.793598995316401101e+00
9.999999999999994449e-01,-2.549929182716423738e-04,-9.793598984713986155e+00
9.999999999999994449e-01,-2.557320305424606475e-04,-9.793598974080794051e+00
9.999999999999994449e-01,-2.564711428338050910e-04,-9.793598963416828340e+00
9.999999999999994449e-01,-2.572102551457350100e-04,-9.793598952722085471e+00
9.999999999999994449e-01,-2.579493674783099274e-04,-9.793598941996568996e+00
9.999999999999994449e-01,-2.586884798315890947e-04,-9.793598931240277139e+00
9.999999999999994449e-01,-2.594275922056318720e-04,-9.793598920453208123e+00
9.999999999999994449e-01,-2.601667046004977821e-04,-9.793598909635365501e+00
9.999999999999994449e-01,-2.609058170162461849e-04,-9.793598898786751050e+00
9.999999999999994449e-01,-2.616449294529363321e-04,-9.793598887907357664e+00
9.999999999999994449e-01,-2.623840419106276923e-04,-9.793598876997187119e+00
9.999999999999994449e-01,-2.631231543893795713e-04,-9.793598866056244745e+00
9.999999999999994449e-01,-2.638622668892514917e-04,-9.793598855084526988e+00
9.999999999999994449e-01,-2.646013794103027053e-04,-9.793598844082033850e+00
9.999999999999994449e-01,-2.653404919525926805e-04,-9.793598833048763552e+00
9.999999999999994449e-01,-2.660796045161807773e-04,-9.793598821984717873e+00
9.999999999999994449e-01,-2.668187171011263017e-04,-9.793598810889902140e+00
9.999999999999994449e-01,-2.675578297074887764e-04,-9.793598799764305696e+00
9.999999999999994449e-01,-2.682969423353274529e-04,-9.793598788607935646e+00
9.999999999999994449e-01,-2.690360549847017457e-04,-9.793598777420790213e+00
9.999999999999994449e-01,-2.697751676556710688e-04,-9.793598766202869399e+00
9.999999999999994449e-01,-2.705142803482948367e-04,-9.793598754954174979e+00
9.999999999999994449e-01,-2.712533930626323010e-04,-9.793598743674705176e+00
9.999999999999994449e-01,-2.719925057987429844e-04,-9.793598732364458215e+00
9.999999999999994449e-01,-2.727316185566861927e-04,-9.793598721023437648e+00
9.999999999999994449e-01,-2.734707313365212860e-04,-9.793598709651639922e+00
9.999999999999994449e-01,-2.742098441383077328e-04,-9.793598698249068590e+00
9.999999999999994449e-01,-2.749489569621047305e-04,-9.793598686815725429e+00
9.999999999999994449e-01,-2.756880698079719103e-04,-9.793598675351599780e+00
9.999999999999994449e-01,-2.764271826759685238e-04,-9.793598663856704079e+00
9.999999999999994449e-01,-2.771662955661539311e-04,-9.793598652331032994e+00
9.999999999999994449e-01,-2.779054084785876548e-04,-9.793598640774584752e+00
9.999999999999994449e-01,-2.786445214133288382e-04,-9.793598629187362903e+00
9.999999999999994449e-01,-2.793836343704370040e-04,-9.793598617569363896e+00
9.999999999999994449e-01,-2.801227473499715665e-04,-9.793598605920589506e+00
9.999999999999994449e-01,-2.808618603519918316e-04,-9.793598594241045063e+00
9.999999999999994449e-01,-2.816009733765572134e-04,-9.793598582530718133e+00
9.999999999999994449e-01,-2.823400864237270180e-04,-9.793598570789621149e+00
9.999999999999994449e-01,-2.830791994935608221e-04,-9.793598559017747007e+00
9.999999999999994449e-01,-2.838183125861178774e-04,-9.793598547215097483e+00
9.999999999999994449e-01,-2.845574257014574357e-04,-9.793598535381670800e+00
9.999999999999994449e-01,-2.852965388396391279e-04,-9.793598523517474064e+00
9.999999999999994449e-01,-2.860356520007221516e-04,-9.793598511622496616e+00
9.999999999999994449e-01,-2.867747651847660294e-04,-9.793598499696747339e+00
9.999999999999994449e-01,-2.875138783918300672e-04,-9.793598487740222680e+00
9.999999999999994449e-01,-2.882529916219735708e-04,-9.793598475752920862e+00
9.999999999999994449e-01,-2.889921048752560630e-04,-9.793598463734847215e+00
9.999999999999994449e-01,-2.897312181517369039e-04,-9.793598451685994632e+00
9.999999999999994449e-01,-2.904703314514752908e-04,-9.793598439606368444e+00
9.999999999999994449e-01,-2.912094447745308548e-04,-9.793598427495970427e+00
9.999999999999994449e-01,-2.919485581209628478e-04,-9.793598415354791697e+00
9.999999999999994449e-01,-2.926876714908305754e-04,-9.793598403182839363e+00
9.999999999999994449e-01,-2.934267848841936688e-04,-9.793598390980113422e+00
9.999999999999994449e-01,-2.941658983011112170e-04,-9.793598378746610322e+00
9.999999999999994449e-01,-2.949050117416428512e-04,-9.793598366482333617e+00
9.999999999999994449e-01,-2.956441252058477688e-04,-9.793598354187281529e+00
9.999999999999994449e-01,-2.963832386937854382e-04,-9.793598341861455836e+00
9.999999999999994449e-01,-2.971223522055152738e-04,-9.793598329504851208e+00
9.999999999999994449e-01,-2.978614657410965272e-04,-9.793598317117472973e+00
9.999999999999994449e-01,-2.986005793005887211e-04,-9.793598304699319357e+00
9.999999999999994449e-01,-2.993396928840511614e-04,-9.793598292250390358e+00
9.999999999999994449e-01,-3.000788064915431539e-04,-9.793598279770685977e+00
9.999999999999994449e-01,-3.008179201231243297e-04,-9.793598267260207990e+00
9.999999999999994449e-01,-3.015570337788539405e-04,-9.793598254718952845e+00
9.999999999999994449e-01,-3.022961474587911295e-04,-9.793598242146925870e+00
9.999999999999994449e-01,-3.030352611629955821e-04,-9.793598229544123512e+00
9.999999999999994449e-01,-3.037743748915266041e-04,-9.793598216910542220e+00
9.999999999999994449e-01,-3.045134886444435555e-04,-9.793598204246185546e+00
9.999999999999994449e-01,-3.052526024218057965e-04,-9.793598191551057042e+00
9.999999999999994449e-01,-3.059917162236727413e-04,-9.793598178825151379e+00
9.999999999999994449e-01,-3.067308300501036958e-04,-9.793598166068470334e+00
9.999999999999994449e-01,-3.074699439011582369e-04,-9.793598153281013907e+00
9.999999999999994449e-01,-3.082090577768954536e-04,-9.793598140462782098e+00
9.999999999999994449e-01,-3.089481716773750312e-04,-9.793598127613774906e+00
9.999999999999994449e-01,-3.096872856026560588e-04,-9.793598114733995885e+00
9.999999999999994449e-01,-3.104263995527982217e-04,-9.793598101823436153e+00
9.999999999999994449e-01,-3.111655135278606631e-04,-9.793598088882108144e+00
9.999999999999994449e-01,-3.119046275279027973e-04,-9.793598075909999423e+00
9.999999999999994449e-01,-3.126437415529842011e-04,-9.793598062907117097e+00
9.999999999999994449e-01,-3.133828556031639095e-04,-9.793598049873459388e+00
9.999999999999994449e-01,-3.141219696785016078e-04,-9.793598036809026297e+00
9.999999999999994449e-01,-3.148610837790565475e-04,-9.793598023713819600e+00
9.999999999999994449e-01,-3.156001979048881972e-04,-9.793598010587835745e+00
9.999999999999994449e-01,-3.163393120560558085e-04,-9.793597997431078284e+00
9.999999999999994449e-01,-3.170784262326189042e-04,-9.793597984243545440e+00
9.999999999999994449e-01,-3.178175404346366816e-04,-9.793597971025235438e+00
9.999999999999994449e-01,-3.185566546621687177e-04,-9.793597957776153606e+00
9.999999999999994449e-01,-3.192957689152742641e-04,-9.793597944496292840e+00
9.999999999999994449e-01,-3.200348831940127352e-04,-9.793597931185658467e+00
9.999999999999994449e-01,-3.207739974984435451e-04,-9.793597917844248713e+00
9.999999999999994449e-01,-3.215131118286260539e-04,-9.793597904472063576e+00
9.999999999999994449e-01,-3.222522261846196218e-04,-9.793597891069103056e+00
9.999999999999994449e-01,-3.229913405664835545e-04,-9.793597877635368931e+00
9.999999999999994449e-01,-3.237304549742775375e-04,-9.793597864170859424e+00
9.999999999999994449e-01,-3.244695694080606055e-04,-9.793597850675572758e+00
9.999999999999994449e-01,-3.252086838678922812e-04,-9.793597837149510710e+00
9.999999999999994449e-01,-3.259477983538319247e-04,-9.793597823592676832e+00
9.999999999999994449e-01,-3.266869128659390586e-04,-9.793597810005065796e+00
9.999999999999994449e-01,-3.274260274042728263e-04,-9.793597796386679377e+00
9.999999999999994449e-01,-3.281651419688926962e-04,-9.793597782737517576e+00
9.999999999999994449e-01,-3.289042565598580825e-04,-9.793597769057580393e+00
9.999999999999994449e-01,-3.296433711772284538e-04,-9.793597755346867828e+00
9.999999999999994449e-01,-3.303824858210629534e-04,-9.793597741605381657e+00
9.999999999999994449e-01,-3.311216004914212122e-04,-9.793597727833118327e+00
9.999999999999994449e-01,-3.318607151883624278e-04,-9.793597714030079615e+00
9.999999999999994449e-01,-3.325998299119460686e-04,-9.793597700196267297e+00
9.999999999999994449e-01,-3.333389446622316032e-04,-9.793597686331681373e+00
9.999999999999994449e-01,-3.340780594392782831e-04,-9.793597672436316515e+00
9.999999999999994449e-01,-3.348171742431454143e-04,-9.793597658510176274e+00
9.999999999999994449e-01,-3.355562890738925195e-04,-9.793597644553264203e+00
9.999999999999994449e-01,-3.362954039315789044e-04,-9.793597630565576750e+00
9.999999999999994449e-01,-3.370345188162640919e-04,-9.793597616547112139e+00
9.999999999999994449e-01,-3.377736337280073334e-04,-9.793597602497872145e+00
9.999999999999994449e-01,-3.385127486668680435e-04,-9.793597588417858546e+00
9.999999999999994449e-01,-3.392518636329055278e-04,-9.793597574307069564e+00
9.999999999999994449e-01,-3.399909786261792548e-04,-9.793597560165503424e+00
9.999999999999994449e-01,-3.407300936467485847e-04,-9.793597545993163678e+00
9.999999999999994449e-01,-3.414692086946729860e-04,-9.793597531790048549e+00
9.999999999999994449e-01,-3.422083237700116560e-04,-9.793597517556156262e+00
9.999999999999994449e-01,-3.429474388728241717e-04,-9.793597503291492146e+00
9.999999999999994449e-01,-3.436865540031697848e-04,-9.793597488996049094e+00
9.999999999999994449e-01,-3.444256691611078552e-04,-9.793597474669835989e+00
9.999999999999994449e-01,-3.451647843466978515e-04,-9.793597460312843950e+00
9.999999999999994449e-01,-3.459038995599990254e-04,-9.793597445925078304e+00
9.999999999999994449e-01,-3.466430148010708995e-04,-9.793597431506535500e+00
9.999999999999994449e-01,-3.473821300699728881e-04,-9.793597417057219090e+00
9.999999999999994449e-01,-3.481212453667642428e-04,-9.793597402577125521e+00
9.999999999999994449e-01,-3.488603606915044323e-04,-9.793597388066260123e+00
9.999999999999994449e-01,-3.495994760442527080e-04,-9.793597373524619343e+00
9.999999999999994449e-01,-3.503385914250686469e-04,-9.793597358952199627e+00
9.999999999999994449e-01,-3.510777068340114465e-04,-9.793597344349004530e+00
9.999999999999994449e-01,-3.518168222711406294e-04,-9.793597329715037603e+00
9.999999999999994449e-01,-3.525559377365155016e-04,-9.793597315050295293e+00
9.999999999999994449e-01,-3.532950532301954230e-04,-9.793597300354777602e+00
9.999999999999994449e-01,-3.540341687522398080e-04,-9.793597285628482751e+00
9.999999999999994449e-01,-3.547732843027080166e-04,-9.793597270871414295e+00
9.999999999999994449e-01,-3.555123998816595715e-04,-9.793597256083566904e+00
9.999999999999994449e-01,-3.562515154891536160e-04,-9.793597241264947684e+00
9.999999999999994449e-01,-3.569906311252496185e-04,-9.793597226415554857e+00
9.999999999999994449e-01,-3.577297467900071560e-04,-9.793597211535386649e+00
9.999999999999994449e-01,-3.584688624834852632e-04,-9.793597196624441281e+00
9.999999999999994449e-01,-3.592079782057436797e-04,-9.793597181682720532e+00
9.999999999999994449e-01,-3.599470939568414404e-04,-9.793597166710224400e+00
9.999999999999994449e-01,-3.606862097368381762e-04,-9.793597151706954662e+00
9.999999999999994449e-01,-3.614253255457932474e-04,-9.793597136672907766e+00
9.999999999999994449e-01,-3.621644413837658513e-04,-9.793597121608087264e+00
9.999999999999994449e-01,-3.629035572508155648e-04,-9.793597106512491379e+00
9.999999999999994449e-01,-3.636426731470016938e-04,-9.793597091386120113e+00
9.999999999999994449e-01,-3.643817890723835985e-04,-9.793597076228973464e+00
9.999999999999994449e-01,-3.651209050270206929e-04,-9.793597061041051433e+00
9.999999999999994449e-01,-3.658600210109722831e-04,-9.793597045822355796e+00
9.999999999999994449e-01,-3.665991370242978917e-04,-9.793597030572881224e+00
9.999999999999994449e-01,-3.673382530670567703e-04,-9.793597015292633046e+00
9.999999999999994449e-01,-3.680773691393084959e-04,-9.793596999981611262e+00
9.999999999999994449e-01,-3.688164852411122117e-04,-9.793596984639815872e+00
9.999999999999994449e-01,-3.695556013725273320e-04,-9.793596969267241548e+00
9.999999999999994449e-01,-3.702947175336134878e-04,-9.793596953863893617e+00
9.999999999999994449e-01,-3.710338337244296599e-04,-9.793596938429768528e+00
9.999999999999994449e-01,-3.717729499450354250e-04,-9.793596922964871609e+00
9.999999999999994449e-01,-3.725120661954904144e-04,-9.793596907469195756e+00
9.999999999999994449e-01,-3.732511824758536086e-04,-9.793596891942748073e+00
9.999999999999994449e-01,-3.739902987861845845e-04,-9.793596876385521455e+00
9.999999999999994449e-01,-3.747294151265425938e-04,-9.793596860797521231e+00
9.999999999999994449e-01,-3.754685314969872676e-04,-9.793596845178747401e+00
9.999999999999994449e-01,-3.762076478975779118e-04,-9.793596829529199965e+00
9.999999999999994449e-01,-3.769467643283736695e-04,-9.793596813848871818e+00
9.999999999999994449e-01,-3.776858807894340636e-04,-9.793596798137773618e+00
9.999999999999994449e-01,-3.784249972808186708e-04,-9.793596782395898259e+00
9.999999999999994449e-01,-3.791641138025864718e-04,-9.793596766623247518e+00
9.999999999999994449e-01,-3.799032303547972061e-04,-9.793596750819821395e+00
9.999999999999994449e-01,-3.806423469375100712e-04,-9.793596734985621666e+00
9.999999999999994449e-01,-3.813814635507845898e-04,-9.793596719120644778e+00
9.999999999999994449e-01,-3.821205801946800135e-04,-9.793596703224892508e+00
9.999999999999994449e-01,-3.828596968692557024e-04,-9.793596687298364856e+00
9.999999999999994449e-01,-3.835988135745711249e-04,-9.793596671341063598e+00
9.999999999999994449e-01,-3.843379303106856954e-04,-9.793596655352985181e+00
9.999999999999994449e-01,-3.850770470776586655e-04,-9.793596639334133158e+00
9.999999999999994449e-01,-3.858161638755495579e-04,-9.793596623284505753e+00
9.999999999999994449e-01,-3.865552807044175701e-04,-9.793596607204104743e+00
9.999999999999994449e-01,-3.872943975643223331e-04,-9.793596591092926573e+00
9.999999999999994449e-01,-3.880335144553229902e-04,-9.793596574950973022e+00
9.999999999999994449e-01,-3.887726313774790641e-04,-9.793596558778244088e+00
9.999999999999994449e-01,-3.895117483308498606e-04,-9.793596542574741548e+00
9.999999999999994449e-01,-3.902508653154947399e-04,-9.793596526340461850e+00
9.999999999999994449e-01,-3.909899823314733330e-04,-9.793596510075406769e+00
9.999999999999994449e-01,-3.917290993788446205e-04,-9.793596493779578083e+00
9.999999999999994449e-01,-3.924682164576682336e-04,-9.793596477452972238e+00
9.999999999999994449e-01,-3.932073335680035865e-04,-9.793596461095592787e+00
9.999999999999994449e-01,-3.939464507099099309e-04,-9.793596444707439730e+00
9.999999999999994449e-01,-3.946855678834465726e-04,-9.793596428288511291e+00
9.999999999999994449e-01,-3.954246850886732512e-04,-9.793596411838805693e+00
9.999999999999994449e-01,-3.961638023256490015e-04,-9.793596395358324713e+00
9.999999999999994449e-01,-3.969029195944332919e-04,-9.793596378847068351e+00
9.999999999999994449e-01,-3.976420368950854827e-04,-9.793596362305036607e+00
9.999999999999994449e-01,-3.983811542276651505e-04,-9.793596345732233033e+00
9.999999999999994449e-01,-3.991202715922314388e-04,-9.793596329128652300e+00
9.999999999999994449e-01,-3.998593889888437617e-04,-9.793596312494296185e+00
9.999999999999994449e-01,-4.005985064175615336e-04,-9.793596295829162912e+00
9.999999999999994449e-01,-4.013376238784443313e-04,-9.793596279133256033e+00
9.999999999999994449e-01,-4.020767413715512439e-04,-9.793596262406573771e+00
9.999999999999994449e-01,-4.028158588969417940e-04,-9.793596245649116128e+00
9.999999999999994449e-01,-4.035549764546752334e-04,-9.793596228860886654e+00
9.999999999999994449e-01,-4.042940940448111931e-04,-9.793596212041876470e+00
9.999999999999994449e-01,-4.050332116674089248e-04,-9.793596195192094456e+00
9.999999999999994449e-01,-4.057723293225277343e-04,-9.793596178311537059e+00
9.999999999999994449e-01,-4.065114470102269275e-04,-9.793596161400202504e+00
9.999999999999994449e-01,-4.072505647305661356e-04,-9.793596144458092567e+00
9.999999999999994449e-01,-4.079896824836047185e-04,-9.793596127485210801e+00
9.999999999999994449e-01,-4.087288002694018196e-04,-9.793596110481550099e+00
9.999999999999994449e-01,-4.094679180880170699e-04,-9.793596093447119344e+00
9.999999999999994449e-01,-4.102070359395096127e-04,-9.793596076381909654e+00
9.999999999999994449e-01,-4.109461538239391333e-04,-9.793596059285924582e+00
9.999999999999994449e-01,-4.116852717413646123e-04,-9.793596042159165904e+00
9.999999999999994449e-01,-4.124243896918458976e-04,-9.793596025001630068e+00
9.999999999999994449e-01,-4.131635076754420241e-04,-9.793596007813320625e+00
9.999999999999994449e-01,-4.139026256922125144e-04,-9.793595990594235801e+00
9.999999999999994449e-01,-4.146417437422165661e-04,-9.793595973344373817e+00
9.999999999999994449e-01,-4.153808618255137560e-04,-9.793595956063736452e+00
9.999999999999994449e-01,-4.161199799421635525e-04,-9.793595938752329033e+00
9.999999999999994449e-01,-4.168590980922250448e-04,-9.793595921410140903e+00
9.999999999999994449e-01,-4.175982162757579724e-04,-9.793595904037179167e+00
9.999999999999994449e-01,-4.183373344928213700e-04,-9.793595886633443826e+00
9.999999999999994449e-01,-4.190764527434747062e-04,-9.793595869198933102e+00
9.999999999999994449e-01,-4.198155710277775036e-04,-9.793595851733645219e+00
9.999999999999994449e-01,-4.205546893457889597e-04,-9.793595834237583730e+00
9.999999999999994449e-01,-4.212938076975687599e-04,-9.793595816710746860e+00
9.999999999999994449e-01,-4.220329260831758847e-04,-9.793595799153132830e+00
9.999999999999994449e-01,-4.227720445026699652e-04,-9.793595781564745195e+00
9.999999999999994449e-01,-4.235111629561103073e-04,-9.793595763945583954e+00
9.999999999999994449e-01,-4.242502814435563795e-04,-9.793595746295643778e+00
9.999999999999994449e-01,-4.249893999650674876e-04,-9.793595728614933549e+00
9.999999999999994449e-01,-4.257285185207029918e-04,-9.793595710903442608e+00
9.999999999999994449e-01,-4.264676371105221436e-04,-9.793595693161179838e+00
9.999999999999994449e-01,-4.272067557345847369e-04,-9.793595675388139910e+00
9.999999999999994449e-01,-4.279458743929497521e-04,-9.793595657584328151e+00
9.999999999999994449e-01,-4.286849930856767663e-04,-9.793595639749737458e+00
9.999999999999994449e-01,-4.294241118128249769e-04,-9.793595621884371383e+00
9.999999999999994449e-01,-4.301632305744540691e-04,-9.793595603988233478e+00
9.999999999999994449e-01,-4.309023493706232405e-04,-9.793595586061318414e+00
9.999999999999994449e-01,-4.316414682013917426e-04,-9.793595568103627969e+00
9.999999999999994449e-01,-4.323805870668191525e-04,-9.793595550115163917e+00
9.999999999999994449e-01,-4.331197059669648301e-04,-9.793595532095922707e+00
9.999999999999994449e-01,-4.338588249018881897e-04,-9.793595514045904338e+00
9.999999999999994449e-01,-4.345979438716484288e-04,-9.793595495965115916e+00
9.999999999999994449e-01,-4.353370628763050159e-04,-9.793595477853548559e+00
9.999999999999994449e-01,-4.360761819159174194e-04,-9.793595459711209372e+00
9.999999999999994449e-01,-4.368153009905450536e-04,-9.793595441538091251e+00
9.999999999999994449e-01,-4.375544201002471161e-04,-9.793595423334197747e+00
9.999999999999994449e-01,-4.382935392450830752e-04,-9.793595405099532414e+00
9.999999999999994449e-01,-4.390326584251122910e-04,-9.793595386834091698e+00
9.999999999999994449e-01,-4.397717776403941778e-04,-9.793595368537873824e+00
9.999999999999994449e-01,-4.405108968909879873e-04,-9.793595350210882344e+00
9.999999999999994449e-01,-4.412500161769533505e-04,-9.793595331853113706e+00
9.999999999999994449e-01,-4.419891354983495734e-04,-9.793595313464571461e+00
9.999999999999994449e-01,-4.427282548552359076e-04,-9.793595295045252058e+00
9.999999999999994449e-01,-4.434673742476718757e-04,-9.793595276595159049e+00
9.999999999999994449e-01,-4.442064936757167295e-04,-9.793595258114292434e+00
9.999999999999994449e-01,-4.449456131394298832e-04,-9.793595239602646885e+00
9.999999999999994449e-01,-4.456847326388707511e-04,-9.793595221060227729e+00
9.999999999999994449e-01,-4.464238521740986933e-04,-9.793595202487034967e+00
9.999999999999994449e-01,-4.471629717451731240e-04,-9.793595183883065047e+00
9.999999999999994449e-01,-4.479020913521534033e-04,-9.793595165248321521e+00
9.999999999999994449e-01,-4.486412109950989996e-04,-9.793595146582799060e+00
9.999999999999994449e-01,-4.493803306740691106e-04,-9.793595127886504770e+00
9.999999999999994449e-01,-4.501194503891232045e-04,-9.793595109159435097e+00
9.999999999999994449e-01,-4.508585701403207500e-04,-9.793595090401588266e+00
9.999999999999994449e-01,-4.515976899277208902e-04,-9.793595071612969605e+00
9.999999999999994449e-01,-4.523368097513833105e-04,-9.793595052793573785e+00
9.999999999999994449e-01,-4.530759296113671540e-04,-9.793595033943402584e+00
9.999999999999994449e-01,-4.538150495077319978e-04,-9.793595015062457776e+00
9.999999999999994449e-01,-4.545541694405369850e-04,-9.793594996150734033e+00
9.999999999999994449e-01,-4.552932894098418010e-04,-9.793594977208240238e+00
9.999999999999994449e-01,-4.560324094157055890e-04,-9.793594958234969283e+00
9.999999999999994449e-01,-4.567715294581878175e-04,-9.793594939230919394e+00
9.999999999999994449e-01,-4.575106495373477923e-04,-9.793594920196097675e+00
9.999999999999994449e-01,-4.582497696532449277e-04,-9.793594901130500574e+00
9.999999999999994449e-01,-4.589888898059387465e-04,-9.793594882034128091e+00
9.999999999999994449e-01,-4.597280099954883376e-04,-9.793594862906982002e+00
9.999999999999994449e-01,-4.604671302219533863e-04,-9.793594843749056977e+00
9.999999999999994449e-01,-4.612062504853931986e-04,-9.793594824560358347e+00
9.999999999999994449e-01,-4.619453707858668635e-04,-9.793594805340886111e+00
9.999999999999994449e-01,-4.626844911234341746e-04,-9.793594786090638493e+00
9.999999999999994449e-01,-4.634236114981543295e-04,-9.793594766809611940e+00
9.999999999999994449e-01,-4.641627319100866339e-04,-9.793594747497815334e+00
9.999999999999994449e-01,-4.649018523592905565e-04,-9.793594728155243345e+00
9.999999999999994449e-01,-4.656409728458255656e-04,-9.793594708781892422e+00
9.999999999999994449e-01,-4.663800933697508587e-04,-9.793594689377769669e+00
9.999999999999994449e-01,-4.671192139311259586e-04,-9.793594669942866204e+00
9.999999999999994449e-01,-4.678583345300100626e-04,-9.793594650477192687e+00
9.999999999999994449e-01,-4.685974551664628019e-04,-9.793594630980740234e+00
9.999999999999994449e-01,-4.693365758405434822e-04,-9.793594611453517729e+00
9.999999999999994449e-01,-4.700756965523113012e-04,-9.793594591895514512e+00
9.999999999999994449e-01,-4.708148173018258898e-04,-9.793594572306739465e+00
9.999999999999994449e-01,-4.715539380891463914e-04,-9.793594552687189037e+00
9.999999999999994449e-01,-4.722930589143324912e-04,-9.793594533036863226e+00
9.999999999999994449e-01,-4.730321797774432241e-04,-9.793594513355762032e+00
9.999999999999994449e-01,-4.737713006785382211e-04,-9.793594493643885457e+00
9.999999999999994449e-01,-4.745104216176766797e-04,-9.793594473901233499e+00
9.999999999999994449e-01,-4.752495425949182311e-04,-9.793594454127806159e+00
9.999999999999994449e-01,-4.759886636103220726e-04,-9.793594434323603437e+00
9.999999999999994449e-01,-4.767277846639475102e-04,-9.793594414488628885e+00
9.999999999999994449e-01,-4.774669057558541749e-04,-9.793594394622875399e+00
9.999999999999994449e-01,-4.782060268861012100e-04,-9.793594374726348306e+00
9.999999999999994449e-01,-4.789451480547480839e-04,-9.793594354799042279e+00
9.999999999999994449e-01,-4.796842692618542652e-04,-9.793594334840966198e+00
9.999999999999994449e-01,-4.804233905074789513e-04,-9.793594314852112959e+00
9.999999999999994449e-01,-4.811625117916816649e-04,-9.793594294832484337e+00
9.999999999999994449e-01,-4.819016331145217118e-04,-9.793594274782080333e+00
9.999999999999994449e-01,-4.826407544760586148e-04,-9.793594254700900947e+00
9.999999999999994449e-01,-4.833798758763516255e-04,-9.793594234588946179e+00
9.999999999999994449e-01,-4.841189973154600497e-04,-9.793594214446217805e+00
9.999999999999994449e-01,-4.848581187934434102e-04,-9.793594194272714049e+00
9.999999999999994449e-01,-4.855972403103611754e-04,-9.793594174068433134e+00
9.999999999999994449e-01,-4.863363618662723802e-04,-9.793594153833380389e+00
9.999999999999994449e-01,-4.870754834612367641e-04,-9.793594133567548710e+00
9.999999999999994449e-01,-4.878146050953133619e-04,-9.793594113270945201e+00
9.999999999999994449e-01,-4.885537267685620758e-04,-9.793594092943562757e+00
9.999999999999994449e-01,-4.892928484810418321e-04,-9.793594072585408483e+00
9.999999999999994449e-01,-4.900319702328120993e-04,-9.793594052196478827e+00
9.999999999999994449e-01,-4.907710920239321834e-04,-9.793594031776770237e+00
9.999999999999994449e-01,-4.915102138544617154e-04,-9.793594011326288040e+00
9.999999999999994449e-01,-4.922493357244600012e-04,-9.793593990845032238e+00
9.999999999999994449e-01,-4.929884576339862382e-04,-9.793593970333002829e+00
9.999999999999994449e-01,-4.937275795831001660e-04,-9.793593949790196262e+00
9.999999999999994449e-01,-4.944667015718607651e-04,-9.793593929216612537e+00
9.999999999999994449e-01,-4.952058236003275583e-04,-9.793593908612255206e+00
9.999999999999994449e-01,-4.959449456685599599e-04,-9.793593887977124268e+00
9.999999999999994449e-01,-4.966840677766174925e-04,-9.793593867311214396e+00
9.999999999999994449e-01,-4.974231899245592451e-04,-9.793593846614530918e+00
9.999999999999994449e-01,-4.981623121124448489e-04,-9.793593825887075610e+00
9.999999999999994449e-01,-4.989014343403335014e-04,-9.793593805128841367e+00
9.999999999999994449e-01,-4.996405566082846167e-04,-9.793593784339831743e+00
9.999999999999994449e-01,-5.003796789163576092e-04,-9.793593763520052065e+00
9.999999999999994449e-01,-5.011188012646121100e-04,-9.793593742669489899e+00
9.999999999999994449e-01,-5.018579236531069913e-04,-9.793593721788155904e+00
9.999999999999994449e-01,-5.025970460819019926e-04,-9.793593700876046526e+00
9.999999999999994449e-01,-5.033361685510565281e-04,-9.793593679933163543e+00
9.999999999999994449e-01,-5.040752910606297954e-04,-9.793593658959503401e+00
9.999999999999994449e-01,-5.048144136106811003e-04,-9.793593637955067877e+00
9.999999999999994449e-01,-5.055535362012700739e-04,-9.793593616919856970e+00
9.999999999999994449e-01,-5.062926588324559137e-04,-9.793593595853872458e+00
9.999999999999994449e-01,-5.070317815042981423e-04,-9.793593574757112563e+00
9.999999999999994449e-01,-5.077709042168560656e-04,-9.793593553629577286e+00
9.999999999999994449e-01,-5.085100269701889894e-04,-9.793593532471264851e+00
9.999999999999994449e-01,-5.092491497643565450e-04,-9.793593511282178810e+00
9.999999999999994449e-01,-5.099882725994177128e-04,-9.793593490062319162e+00
9.999999999999994449e-01,-5.107273954754322325e-04,-9.793593468811684133e+00
9.999999999999994449e-01,-5.114665183924593014e-04,-9.793593447530268392e+00
9.999999999999994449e-01,-5.122056413505583338e-04,-9.793593426218082598e+00
9.999999999999994449e-01,-5.129447643497887441e-04,-9.793593404875121422e+00
9.999999999999994449e-01,-5.136838873902099464e-04,-9.793593383501383087e+00
9.999999999999994449e-01,-5.144230104718812467e-04,-9.793593362096871147e+00
9.999999999999994449e-01,-5.151621335948620593e-04,-9.793593340661583824e+00
9.999999999999994449e-01,-5.159012567592116899e-04,-9.793593319195519342e+00
9.999999999999994449e-01,-5.166403799649897698e-04,-9.793593297698683031e+00
9.999999999999994449e-01,-5.173795032122551710e-04,-9.793593276171071338e+00
9.999999999999994449e-01,-5.181186265010678501e-04,-9.793593254612680710e+00
9.999999999999994449e-01,-5.188577498314868959e-04,-9.793593233023518252e+00
9.999999999999994449e-01,-5.195968732035717227e-04,-9.793593211403578636e+00
9.999999999999994449e-01,-5.203359966173817450e-04,-9.793593189752863637e+00
9.999999999999994449e-01,-5.210751200729761600e-04,-9.793593168071376809e+00
9.999999999999994449e-01,-5.218142435704145989e-04,-9.793593146359111046e+00
9.999999999999994449e-01,-5.225533671097563676e-04,-9.793593124616071677e+00
9.999999999999994449e-01,-5.232924906910607719e-04,-9.793593102842258702e+00
9.999999999999994449e-01,-5.240316143143873345e-04,-9.793593081037668568e+00
9.999999999999994449e-01,-5.247707379797953613e-04,-9.793593059202303053e+00
9.999999999999994449e-01,-5.255098616873442666e-04,-9.793593037336163931e+00
9.999999999999994449e-01,-5.262489854370932477e-04,-9.793593015439247651e+00
9.999999999999994449e-01,-5.269881092291018275e-04,-9.793592993511555989e+00
9.999999999999994449e-01,-5.277272330634294201e-04,-9.793592971553090720e+00
9.999999999999994449e-01,-5.284663569401353315e-04,-9.793592949563848293e+00
9.999999999999994449e-01,-5.292054808592790843e-04,-9.793592927543832261e+00
9.999999999999994449e-01,-5.299446048209198760e-04,-9.793592905493040845e+00
9.999999999999994449e-01,-5.306837288251172293e-04,-9.793592883411474048e+00
9.999999999999994449e-01,-5.314228528719303415e-04,-9.793592861299131869e+00
9.999999999999994449e-01,-5.321619769614188439e-04,-9.793592839156014307e+00
9.999999999999994449e-01,-5.329011010936420423e-04,-9.793592816982124916e+00
9.999999999999994449e-01,-5.336402252686590257e-04,-9.793592794777456589e+00
9.999999999999994449e-01,-5.343793494865296421e-04,-9.793592772542014657e+00
9.999999999999994449e-01,-5.351184737473128721e-04,-9.793592750275793790e+00
9.999999999999994449e-01,-5.358575980510684551e-04,-9.793592727978802870e+00
9.999999999999994449e-01,-5.365967223978554803e-04,-9.793592705651034791e+00
9.999999999999994449e-01,-5.373358467877333618e-04,-9.793592683292489554e+00
9.999999999999994449e-01,-5.380749712207615141e-04,-9.793592660903170710e+00
9.999999999999994449e-01,-5.388140956969993513e-04,-9.793592638483076485e+00
9.999999999999994449e-01,-5.395532202165063962e-04,-9.793592616032210429e+00
9.999999999999994449e-01,-5.402923447793417377e-04,-9.793592593550563663e+00
9.999999999999994449e-01,-5.410314693855651155e-04,-9.793592571038146843e+00
9.999999999999994449e-01,-5.417705940352356185e-04,-9.793592548494949312e+00
9.999999999999994449e-01,-5.425097187284125527e-04,-9.793592525920979952e+00
9.999999999999994449e-01,-5.432488434651555490e-04,-9.793592503316235209e+00
9.999999999999994449e-01,-5.439879682455240218e-04,-9.793592480680715084e+00
9.999999999999994449e-01,-5.447270930695770601e-04,-9.793592458014421354e+00
9.999999999999994449e-01,-5.454662179373742951e-04,-9.793592435317348688e+00
9.999999999999994449e-01,-5.462053428489750326e-04,-9.793592412589504193e+00
9.999999999999994449e-01,-5.469444678044384700e-04,-9.793592389830884315e+00
9.999999999999994449e-01,-5.476835928038243468e-04,-9.793592367041487279e+00
9.999999999999994449e-01,-5.484227178471918606e-04,-9.793592344221313084e+00
9.999999999999994449e-01,-5.491618429346003171e-04,-9.793592321370367060e+00
9.999999999999994449e-01,-5.499009680661091307e-04,-9.793592298488643877e+00
9.999999999999994449e-01,-5.506400932417778241e-04,-9.793592275576148865e+00
9.999999999999994449e-01,-5.513792184616657030e-04,-9.793592252632876693e+00
9.999999999999994449e-01,-5.521183437258319650e-04,-9.793592229658829140e+00
9.999999999999994449e-01,-5.528574690343362411e-04,-9.793592206654006205e+00
9.999999999999994449e-01,-5.535965943872377289e-04,-9.793592183618411440e+00
9.999999999999994449e-01,-5.543357197845960593e-04,-9.793592160552035963e+00
9.999999999999994449e-01,-5.550748452264703215e-04,-9.793592137454886881e+00
9.999999999999994449e-01,-5.558139707129200382e-04,-9.793592114326964193e+00
9.999999999999994449e-01,-5.565530962440047320e-04,-9.793592091168266123e+00
9.999999999999994449e-01,-5.572922218197833835e-04,-9.793592067978790894e+00
9.999999999999994449e-01,-5.580313474403157323e-04,-9.793592044758545612e+00
9.999999999999994449e-01,-5.587704731056609758e-04,-9.793592021507519618e+00
9.999999999999994449e-01,-5.595095988158786367e-04,-9.793591998225720019e+00
9.999999999999994449e-01,-5.602487245710281293e-04,-9.793591974913145037e+00
9.999999999999994449e-01,-5.609878503711684342e-04,-9.793591951569796450e+00
9.999999999999994449e-01,-5.617269762163595078e-04,-9.793591928195672480e+00
9.999999999999994449e-01,-5.624661021066602222e-04,-9.793591904790769576e+00
9.999999999999994449e-01,-5.632052280421304255e-04,-9.793591881355094841e+00
9.999999999999994449e-01,-5.639443540228290981e-04,-9.793591857888646501e+00
9.999999999999994449e-01,-5.646834800488158713e-04,-9.793591834391419226e+00
9.999999999999994449e-01,-5.654226061201498340e-04,-9.793591810863416569e+00
9.999999999999994449e-01,-5.661617322368907258e-04,-9.793591787304642082e+00
9.999999999999994449e-01,-5.669008583990977441e-04,-9.793591763715092213e+00
9.999999999999994449e-01,-5.676399846068303032e-04,-9.793591740094765186e+00
9.999999999999994449e-01,-5.683791108601477090e-04,-9.793591716443664552e+00
9.999999999999994449e-01,-5.691182371591094842e-04,-9.793591692761786760e+00
9.999999999999994449e-01,-5.698573635037748261e-04,-9.793591669049133586e+00
9.999999999999994449e-01,-5.705964898942033660e-04,-9.793591645305706805e+00
9.999999999999994449e-01,-5.713356163304543012e-04,-9.793591621531504643e+00
9.999999999999994449e-01,-5.720747428125869376e-04,-9.793591597726525322e+00
9.999999999999994449e-01,-5.728138693406607980e-04,-9.793591573890775948e+00
9.999999999999994449e-01,-5.735529959147352965e-04,-9.793591550024245862e+00
9.999999999999994449e-01,-5.742921225348697391e-04,-9.793591526126943947e+00
9.999999999999994449e-01,-5.750312492011236485e-04,-9.793591502198863097e+00
9.999999999999994449e-01,-5.757703759135560052e-04,-9.793591478240012194e+00
9.999999999999994449e-01,-5.765095026722266572e-04,-9.793591454250382355e+00
9.999999999999994449e-01,-5.772486294771946936e-04,-9.793591430229978911e+00
9.999999999999994449e-01,-5.779877563285195285e-04,-9.793591406178798309e+00
9.999999999999994449e-01,-5.787268832262606848e-04,-9.793591382096844100e+00
9.999999999999994449e-01,-5.794660101704775766e-04,-9.793591357984116286e+00
9.999999999999994449e-01,-5.802051371612292931e-04,-9.793591333840611313e+00
9.999999999999994449e-01,-5.809442641985754652e-04,-9.793591309666329181e+00
9.999999999999994449e-01,-5.816833912825752906e-04,-9.793591285461275220e+00
9.999999999999994449e-01,-5.824225184132884002e-04,-9.793591261225444100e+00
9.999999999999994449e-01,-5.831616455907741000e-04,-9.793591236958841151e+00
9.999999999999994449e-01,-5.839007728150914789e-04,-9.793591212661457490e+00
9.999999999999994449e-01,-5.846399000863002765e-04,-9.793591188333303776e+00
9.999999999999994449e-01,-5.853790274044595818e-04,-9.793591163974371128e+00
9.999999999999994449e-01,-5.861181547696290260e-04,-9.793591139584664873e+00
9.999999999999994449e-01,-5.868572821818681317e-04,-9.793591115164183236e+00
9.999999999999994449e-01,-5.875964096412356627e-04,-9.793591090712927993e+00
9.999999999999994449e-01,-5.883355371477915754e-04,-9.793591066230895592e+00
9.999999999999994449e-01,-5.890746647015949588e-04,-9.793591041718087808e+00
9.999999999999994449e-01,-5.898137923027054440e-04,-9.793591017174506419e+00
9.999999999999994449e-01,-5.905529199511821200e-04,-9.793590992600147871e+00
9.999999999999994449e-01,-5.912920476470846180e-04,-9.793590967995015717e+00
9.999999999999994449e-01,-5.920311753904721353e-04,-9.793590943359108181e+00
9.999999999999994449e-01,-5.927703031814040863e-04,-9.793590918692423486e+00
9.999999999999994449e-01,-5.935094310199398853e-04,-9.793590893994968738e+00
9.999999999999994449e-01,-5.942485589061390549e-04,-9.793590869266735055e+00
9.999999999999994449e-01,-5.949876868400606842e-04,-9.793590844507725990e+00
9.999999999999994449e-01,-5.957268148217642958e-04,-9.793590819717941542e+00
9.999999999999994449e-01,-5.964659428513093041e-04,-9.793590794897383489e+00
9.999999999999994449e-01,-5.972050709287551233e-04,-9.793590770046048277e+00
9.999999999999994449e-01,-5.979441990541611678e-04,-9.793590745163939459e+00
9.999999999999994449e-01,-5.986833272275864180e-04,-9.793590720251053483e+00
9.999999999999994449e-01,-5.994224554490907219e-04,-9.793590695307392124e+00
9.999999999999994449e-01,-6.001615837187333855e-04,-9.793590670332960713e+00
9.999999999999994449e-01,-6.009007120365736062e-04,-9.793590645327748589e+00
9.999999999999994449e-01,-6.016398404026709066e-04,-9.793590620291764637e+00
9.999999999999994449e-01,-6.023789688170845926e-04,-9.793590595225003526e+00
9.999999999999994449e-01,-6.031180972798741869e-04,-9.793590570127467032e+00
9.999999999999994449e-01,-6.038572257910987786e-04,-9.793590544999156933e+00
9.999999999999994449e-01,-6.045963543508179987e-04,-9.793590519840071451e+00
9.999999999999994449e-01,-6.053354829590910447e-04,-9.793590494650208811e+00
9.999999999999994449e-01,-6.060746116159775477e-04,-9.793590469429574341e+00
9.999999999999994449e-01,-6.068137403215368136e-04,-9.793590444178162713e+00
9.999999999999994449e-01,-6.075528690758280398e-04,-9.793590418895977479e+00
9.999999999999994449e-01,-6.082919978789107490e-04,-9.793590393583015086e+00
9.999999999999994449e-01,-6.090311267308443554e-04,-9.793590368239277311e+00
9.999999999999994449e-01,-6.097702556316880566e-04,-9.793590342864764153e+00
9.999999999999994449e-01,-6.105093845815013753e-04,-9.793590317459475614e+00
9.999999999999994449e-01,-6.112485135803437256e-04,-9.793590292023411692e+00
9.999999999999994449e-01,-6.119876426282744135e-04,-9.793590266556574164e+00
9.999999999999994449e-01,-6.127267717253528532e-04,-9.793590241058961254e+00
9.999999999999994449e-01,-6.134659008716383507e-04,-9.793590215530572962e+00
9.999999999999994449e-01,-6.142050300671905369e-04,-9.793590189971411064e+00
9.999999999999994449e-01,-6.149441593120683926e-04,-9.793590164381470231e+00
9.999999999999994449e-01,-6.156832886063315488e-04,-9.793590138760759345e+00
9.999999999999994449e-01,-6.164224179500395282e-04,-9.793590113109269524e+00
9.999999999999994449e-01,-6.171615473432513115e-04,-9.793590087427002544e+00
9.999999999999994449e-01,-6.179006767860266381e-04,-9.793590061713963735e+00
9.999999999999994449e-01,-6.186398062784245972e-04,-9.793590035970151320e+00
9.999999999999994449e-01,-6.193789358205049281e-04,-9.793590010195559969e+00
9.999999999999994449e-01,-6.201180654123267201e-04,-9.793589984390195013e+00
9.999999999999994449e-01,-6.208571950539496041e-04,-9.793589958554054675e+00
9.999999999999994449e-01,-6.215963247454324523e-04,-9.793589932687138955e+00
9.999999999999994449e-01,-6.223354544868351127e-04,-9.793589906789449628e+00
9.999999999999994449e-01,-6.230745842782169997e-04,-9.793589880860983143e+00
9.999999999999994449e-01,-6.238137141196370937e-04,-9.793589854901741276e+00
9.999999999999994449e-01,-6.245528440111551343e-04,-9.793589828911725803e+00
9.999999999999994449e-01,-6.252919739528303190e-04,-9.793589802890934948e+00
9.999999999999994449e-01,-6.260311039447222789e-04,-9.793589776839366934e+00
9.999999999999994449e-01,-6.267702339868899946e-04,-9.793589750757027090e+00
9.999999999999994449e-01,-6.275093640793930972e-04,-9.793589724643910088e+00
9.999999999999994449e-01,-6.282484942222912178e-04,-9.793589698500017704e+00
9.999999999999994449e-01,-6.289876244156431201e-04,-9.793589672325349937e+00
9.999999999999994449e-01,-6.297267546595085438e-04,-9.793589646119908565e+00
9.999999999999994449e-01,-6.304658849539469031e-04,-9.793589619883690034e+00
9.999999999999994449e-01,-6.312050152990176122e-04,-9.793589593616696121e+00
9.999999999999994449e-01,-6.319441456947797603e-04,-9.793589567318926825e+00
9.999999999999994449e-01,-6.326832761412930868e-04,-9.793589540990385700e+00
9.999999999999994449e-01,-6.334224066386166807e-04,-9.793589514631067416e+00
9.999999999999994449e-01,-6.341615371868099564e-04,-9.793589488240971974e+00
9.999999999999994449e-01,-6.349006677859325449e-04,-9.793589461820102926e+00
9.999999999999994449e-01,-6.356397984360437521e-04,-9.793589435368460272e+00
9.999999999999994449e-01,-6.363789291372026671e-04,-9.793589408886040459e+00
9.999999999999994449e-01,-6.371180598894690293e-04,-9.793589382372847041e+00
9.999999999999994449e-01,-6.378571906929020362e-04,-9.793589355828878240e+00
9.999999999999994449e-01,-6.385963215475609937e-04,-9.793589329254132281e+00
9.999999999999994449e-01,-6.393354524535055329e-04,-9.793589302648610939e+00
9.999999999999994449e-01,-6.400745834107947427e-04,-9.793589276012315992e+00
9.999999999999994449e-01,-6.408137144194882544e-04,-9.793589249345247438e+00
9.999999999999994449e-01,-6.415528454796453738e-04,-9.793589222647401726e+00
9.999999999999994449e-01,-6.422919765913252983e-04,-9.793589195918778856e+00
9.999999999999994449e-01,-6.430311077545878759e-04,-9.793589169159385932e+00
9.999999999999994449e-01,-6.437702389694918703e-04,-9.793589142369214073e+00
9.999999999999994449e-01,-6.445093702360970211e-04,-9.793589115548268609e+00
9.999999999999994449e-01,-6.452485015544626341e-04,-9.793589088696545986e+00
9.999999999999994449e-01,-6.459876329246481237e-04,-9.793589061814049757e+00
9.999999999999994449e-01,-6.467267643467127956e-04,-9.793589034900778145e+00
9.999999999999994449e-01,-6.474658958207163894e-04,-9.793589007956731152e+00
9.999999999999994449e-01,-6.482050273467176689e-04,-9.793588980981907000e+00
9.999999999999994449e-01,-6.489441589247763736e-04,-9.793588953976311018e+00
9.999999999999994449e-01,-6.496832905549518094e-04,-9.793588926939937878e+00
9.999999999999994449e-01,-6.504224222373034990e-04,-9.793588899872789355e+00
9.999999999999994449e-01,-6.511615539718907482e-04,-9.793588872774865450e+00
9.999999999999994449e-01,-6.519006857587727544e-04,-9.793588845646167940e+00
9.999999999999994449e-01,-6.526398175980090404e-04,-9.793588818486695047e+00
9.999999999999994449e-01,-6.533789494896591289e-04,-9.793588791296446772e+00
9.999999999999994449e-01,-6.541180814337822173e-04,-9.793588764075423114e+00
9.999999999999994449e-01,-6.548572134304376114e-04,-9.793588736823625851e+00
9.999999999999994449e-01,-6.555963454796849424e-04,-9.793588709541051429e+00
9.999999999999994449e-01,-6.563354775815834078e-04,-9.793588682227703401e+00
9.999999999999994449e-01,-6.570746097361924217e-04,-9.793588654883574662e+00
9.999999999999994449e-01,-6.578137419435712901e-04,-9.793588627508677646e+00
9.999999999999994449e-01,-6.585528742037796441e-04,-9.793588600103003472e+00
9.999999999999994449e-01,-6.592920065168766811e-04,-9.793588572666552139e+00
9.999999999999994449e-01,-6.600311388829217070e-04,-9.793588545199328976e+00
9.999999999999994449e-01,-6.607702713019743528e-04,-9.793588517701326879e+00
9.999999999999994449e-01,-6.615094037740935993e-04,-9.793588490172551175e+00
9.999999999999994449e-01,-6.622485362993394027e-04,-9.793588462613000090e+00
9.999999999999994449e-01,-6.629876688777705269e-04,-9.793588435022673622e+00
9.999999999999994449e-01,-6.637268015094467113e-04,-9.793588407401573548e+00
9.999999999999994449e-01,-6.644659341944272619e-04,-9.793588379749698092e+00
9.999999999999994449e-01,-6.652050669327717013e-04,-9.793588352067043701e+00
9.999999999999994449e-01,-6.659441997245391185e-04,-9.793588324353619257e+00
9.999999999999994449e-01,-6.666833325697890363e-04,-9.793588296609414101e+00
9.999999999999994449e-01,-6.674224654685807605e-04,-9.793588268834440669e+00
9.999999999999994449e-01,-6.681615984209740306e-04,-9.793588241028688302e+00
9.999999999999994449e-01,-6.689007314270277189e-04,-9.793588213192158776e+00
9.999999999999994449e-01,-6.696398644868014564e-04,-9.793588185324857420e+00
9.999999999999994449e-01,-6.703789976003547658e-04,-9.793588157426780683e+00
9.999999999999994449e-01,-6.711181307677467362e-04,-9.793588129497926786e+00
9.999999999999994449e-01,-6.718572639890367819e-04,-9.793588101538299284e+00
9.999999999999994449e-01,-6.725963972642845339e-04,-9.793588073547896400e+00
9.999999999999994449e-01,-6.733355305935491896e-04,-9.793588045526716357e+00
9.999999999999994449e-01,-6.740746639768900551e-04,-9.793588017474762708e+00
9.999999999999994449e-01,-6.748137974143667613e-04,-9.793587989392031901e+00
9.999999999999994449e-01,-6.755529309060383973e-04,-9.793587961278531040e+00
9.999999999999994449e-01,-6.762920644519645943e-04,-9.793587933134249468e+00
9.999999999999994449e-01,-6.770311980522044411e-04,-9.793587904959196067e+00
9.999999999999994449e-01,-6.777703317068177859e-04,-9.793587876753367283e+00
9.999999999999994449e-01,-6.785094654158635007e-04,-9.793587848516761341e+00
9.999999999999994449e-01,-6.792485991794013252e-04,-9.793587820249380016e+00
9.999999999999994449e-01,-6.799877329974903482e-04,-9.793587791951223309e+00
9.999999999999994449e-01,-6.807268668701902010e-04,-9.793587763622294773e+00
9.999999999999994449e-01,-6.814660007975601895e-04,-9.793587735262589078e+00
9.999999999999994449e-01,-6.822051347796595109e-04,-9.793587706872108001e+00
9.999999999999994449e-01,-6.829442688165477966e-04,-9.793587678450853318e+00
9.999999999999994449e-01,-6.836834029082843522e-04,-9.793587649998819700e+00
9.999999999999994449e-01,-6.844225370549288090e-04,-9.793587621516014252e+00
9.999999999999994449e-01,-6.851616712565399307e-04,-9.793587593002433422e+00
9.999999999999994449e-01,-6.859008055131775652e-04,-9.793587564458075434e+00
9.999999999999994449e-01,-6.866399398249009101e-04,-9.793587535882945616e+00
9.999999999999994449e-01,-6.873790741917693795e-04,-9.793587507277036863e+00
9.999999999999994449e-01,-6.881182086138424962e-04,-9.793587478640356281e+00
9.999999999999994449e-01,-6.888573430911794577e-04,-9.793587449972898540e+00
9.999999999999994449e-01,-6.895964776238396781e-04,-9.793587421274663640e+00
9.999999999999994449e-01,-6.903356122118825718e-04,-9.793587392545656911e+00
9.999999999999994449e-01,-6.910747468553677698e-04,-9.793587363785874800e+00
9.999999999999994449e-01,-6.918138815543541445e-04,-9.793587334995317306e+00
9.999999999999994449e-01,-6.925530163089013268e-04,-9.793587306173982654e+00
9.999999999999994449e-01,-6.932921511190688396e-04,-9.793587277321874396e+00
9.999999999999994449e-01,-6.940312859849157717e-04,-9.793587248438988979e+00
9.999999999999994449e-01,-6.947704209065017544e-04,-9.793587219525329957e+00
9.999999999999994449e-01,-6.955095558838859850e-04,-9.793587190580897328e+00
9.999999999999994449e-01,-6.962486909171280948e-04,-9.793587161605687541e+00
9.999999999999994449e-01,-6.969878260062871726e-04,-9.793587132599702372e+00
9.999999999999994449e-01,-6.977269611514228496e-04,-9.793587103562943597e+00
9.999999999999994449e-01,-6.984660963525942149e-04,-9.793587074495409439e+00
9.999999999999994449e-01,-6.992052316098610080e-04,-9.793587045397099899e+00
9.999999999999994449e-01,-6.999443669232821011e-04,-9.793587016268013201e+00
9.999999999999994449e-01,-7.006835022929175589e-04,-9.793586987108152897e+00
9.999999999999994449e-01,-7.014226377188262536e-04,-9.793586957917517211e+00
9.999999999999994449e-01,-7.021617732010675995e-04,-9.793586928696107918e+00
9.999999999999994449e-01,-7.029009087397013363e-04,-9.793586899443923244e+00
9.999999999999994449e-01,-7.036400443347863359e-04,-9.793586870160959634e+00
9.999999999999994449e-01,-7.043791799863823380e-04,-9.793586840847222419e+00
9.999999999999994449e-01,-7.051183156945486485e-04,-9.793586811502711598e+00
9.999999999999994449e-01,-7.058574514593444647e-04,-9.793586782127423618e+00
9.999999999999994449e-01,-7.065965872808294178e-04,-9.793586752721363808e+00
9.999999999999994449e-01,-7.073357231590629221e-04,-9.793586723284525064e+00
9.999999999999994449e-01,-7.080748590941040666e-04,-9.793586693816912714e+00
9.999999999999994449e-01,-7.088139950860124824e-04,-9.793586664318526758e+00
9.999999999999994449e-01,-7.095531311348473669e-04,-9.793586634789365419e+00
9.999999999999994449e-01,-7.102922672406681345e-04,-9.793586605229428699e+00
9.999999999999994449e-01,-7.110314034035344162e-04,-9.793586575638713043e+00
9.999999999999994449e-01,-7.117705396235051926e-04,-9.793586546017225558e+00
9.999999999999994449e-01,-7.125096759006400949e-04,-9.793586516364962691e+00
9.999999999999994449e-01,-7.132488122349985374e-04,-9.793586486681920888e+00
9.999999999999994449e-01,-7.139879486266397174e-04,-9.793586456968109033e+00
9.999999999999994449e-01,-7.147270850756232662e-04,-9.793586427223521795e+00
9.999999999999994449e-01,-7.154662215820082726e-04,-9.793586397448155623e+00
9.999999999999994449e-01,-7.162053581458542595e-04,-9.793586367642017620e+00
9.999999999999994449e-01,-7.169444947672207495e-04,-9.793586337805102460e+00
9.999999999999994449e-01,-7.176836314461669400e-04,-9.793586307937411917e+00
9.999999999999994449e-01,-7.184227681827522454e-04,-9.793586278038947768e+00
9.999999999999994449e-01,-7.191619049770359715e-04,-9.793586248109708237e+00
9.999999999999994449e-01,-7.199010418290776410e-04,-9.793586218149693323e+00
9.999999999999994449e-01,-7.206401787389364513e-04,-9.793586188158903028e+00
9.999999999999994449e-01,-7.213793157066720335e-04,-9.793586158137335573e+00
9.999999999999994449e-01,-7.221184527323435852e-04,-9.793586128084996290e+00
9.999999999999994449e-01,-7.228575898160106289e-04,-9.793586098001881624e+00
9.999999999999994449e-01,-7.235967269577321453e-04,-9.793586067887988023e+00
9.999999999999994449e-01,-7.243358641575681992e-04,-9.793586037743322592e+00
9.999999999999994449e-01,-7.250750014155775544e-04,-9.793586007567881779e+00
9.999999999999994449e-01,-7.258141387318199503e-04,-9.793585977361663808e+00
9.999999999999994449e-01,-7.265532761063546929e-04,-9.793585947124675783e+00
9.999999999999994449e-01,-7.272924135392410880e-04,-9.793585916856907048e+00
9.999999999999994449e-01,-7.280315510305384414e-04,-9.793585886558362930e+00
9.999999999999994449e-01,-7.287706885803061675e-04,-9.793585856229048758e+00
9.999999999999994449e-01,-7.295098261886037889e-04,-9.793585825868953876e+00
9.999999999999994449e-01,-7.302489638554908284e-04,-9.793585795478087164e+00
9.999999999999994449e-01,-7.309881015810261581e-04,-9.793585765056441517e+00
9.999999999999994449e-01,-7.317272393652696260e-04,-9.793585734604024040e+00
9.999999999999994449e-01,-7.324663772082802126e-04,-9.793585704120832958e+00
9.999999999999994449e-01,-7.332055151101178744e-04,-9.793585673606862940e+00
9.999999999999994449e-01,-7.339446530708412667e-04,-9.793585643062119317e+00
9.999999999999994449e-01,-7.346837910905104543e-04,-9.793585612486600311e+00
9.999999999999994449e-01,-7.354229291691842009e-04,-9.793585581880307700e+00
9.999999999999994449e-01,-7.361620673069224630e-04,-9.793585551243239706e+00
9.999999999999994449e-01,-7.369012055037842211e-04,-9.793585520575396330e+00
9.999999999999994449e-01,-7.376403437598288895e-04,-9.793585489876775796e+00
9.999999999999994449e-01,-7.383794820751160993e-04,-9.793585459147379879e+00
9.999999999999994449e-01,-7.391186204497050480e-04,-9.793585428387210357e+00
9.999999999999994449e-01,-7.398577588836549330e-04,-9.793585397596267228e+00
9.999999999999994449e-01,-7.405968973770256022e-04,-9.793585366774545165e+00
9.999999999999994449e-01,-7.413360359298761448e-04,-9.793585335922051271e+00
9.999999999999994449e-01,-7.420751745422658665e-04,-9.793585305038778444e+00
9.999999999999994449e-01,-7.428143132142542900e-04,-9.793585274124733786e+00
9.999999999999994449e-01,-7.435534519459005044e-04,-9.793585243179913746e+00
9.999999999999994449e-01,-7.442925907372645745e-04,-9.793585212204314772e+00
9.999999999999994449e-01,-7.450317295884052640e-04,-9.793585181197945744e+00
9.999999999999994449e-01,-7.457708684993820955e-04,-9.793585150160799557e+00
9.999999999999994449e-01,-7.465100074702547004e-04,-9.793585119092874436e+00
9.999999999999994449e-01,-7.472491465010818422e-04,-9.793585087994179261e+00
9.999999999999994449e-01,-7.479882855919235858e-04,-9.793585056864708704e+00
9.999999999999994449e-01,-7.487274247428389118e-04,-9.793585025704459213e+00
9.999999999999994449e-01,-7.494665639538874513e-04,-9.793584994513437891e+00
9.999999999999994449e-01,-7.502057032251282934e-04,-9.793584963291639411e+00
9.999999999999994449e-01,-7.509448425566209607e-04,-9.793584932039067326e+00
9.999999999999994449e-01,-7.516839819484248675e-04,-9.793584900755718081e+00
9.999999999999994449e-01,-7.524231214005996449e-04,-9.793584869441597007e+00
9.999999999999994449e-01,-7.531622609132041651e-04,-9.793584838096696998e+00
9.999999999999994449e-01,-7.539014004862980593e-04,-9.793584806721025160e+00
9.999999999999994449e-01,-7.546405401199407417e-04,-9.793584775314572610e+00
9.999999999999994449e-01,-7.553796798141916265e-04,-9.793584743877350007e+00
9.999999999999994449e-01,-7.561188195691098029e-04,-9.793584712409353799e+00
9.999999999999994449e-01,-7.568579593847550102e-04,-9.793584680910576878e+00
9.999999999999994449e-01,-7.575970992611864461e-04,-9.793584649381028129e+00
9.999999999999994449e-01,-7.583362391984635248e-04,-9.793584617820703997e+00
9.999999999999994449e-01,-7.590753791966455520e-04,-9.793584586229604483e+00
9.999999999999994449e-01,-7.598145192557920506e-04,-9.793584554607731363e+00
9.999999999999994449e-01,-7.605536593759623263e-04,-9.793584522955079308e+00
9.999999999999994449e-01,-7.612927995572156851e-04,-9.793584491271655423e+00
9.999999999999994449e-01,-7.620319397996116496e-04,-9.793584459557454380e+00
9.999999999999994449e-01,-7.627710801032095258e-04,-9.793584427812479731e+00
9.999999999999994449e-01,-7.635102204680687277e-04,-9.793584396036727924e+00
9.999999999999994449e-01,-7.642493608942484530e-04,-9.793584364230200734e+00
9.999999999999994449e-01,-7.649885013818086580e-04,-9.793584332392899938e+00
9.999999999999994449e-01,-7.657276419308079981e-04,-9.793584300524823760e+00
9.999999999999994449e-01,-7.664667825413059958e-04,-9.793584268625972200e+00
9.999999999999994449e-01,-7.672059232133622824e-04,-9.793584236696347034e+00
9.999999999999994449e-01,-7.679450639470363806e-04,-9.793584204735944709e+00
9.999999999999994449e-01,-7.686842047423872708e-04,-9.793584172744768779e+00
9.999999999999994449e-01,-7.694233455994744760e-04,-9.793584140722815690e+00
9.999999999999994449e-01,-7.701624865183575187e-04,-9.793584108670087218e+00
9.999999999999994449e-01,-7.709016274990955963e-04,-9.793584076586583365e+00
9.999999999999994449e-01,-7.716407685417482317e-04,-9.793584044472305905e+00
9.999999999999994449e-01,-7.723799096463745137e-04,-9.793584012327254840e+00
9.999999999999994449e-01,-7.731190508130342904e-04,-9.793583980151424839e+00
9.999999999999994449e-01,-7.738581920417863256e-04,-9.793583947944823009e+00
9.999999999999994449e-01,-7.745973333326906839e-04,-9.793583915707444021e+00
9.999999999999994449e-01,-7.753364746858064545e-04,-9.793583883439291426e+00
9.999999999999994449e-01,-7.760756161011927263e-04,-9.793583851140361674e+00
9.999999999999994449e-01,-7.768147575789093474e-04,-9.793583818810658315e+00
9.999999999999994449e-01,-7.775538991190151898e-04,-9.793583786450177797e+00
9.999999999999994449e-01,-7.782930407215701016e-04,-9.793583754058925450e+00
9.999999999999994449e-01,-7.790321823866334970e-04,-9.793583721636895945e+00
9.999999999999994449e-01,-7.797713241142644651e-04,-9.793583689184091057e+00
9.999999999999994449e-01,-7.805104659045224201e-04,-9.793583656700512563e+00
9.999999999999994449e-01,-7.812496077574665595e-04,-9.793583624186155134e+00
9.999999999999994449e-01,-7.819887496731566228e-04,-9.793583591641025876e+00
9.999999999999994449e-01,-7.827278916516519159e-04,-9.793583559065121236e+00
9.999999999999994449e-01,-7.834670336930118530e-04,-9.793583526458439437e+00
9.999999999999994449e-01,-7.842061757972958484e-04,-9.793583493820982255e+00
9.999999999999994449e-01,-7.849453179645626659e-04,-9.793583461152753245e+00
9.999999999999994449e-01,-7.856844601948725871e-04,-9.793583428453747075e+00
9.999999999999994449e-01,-7.864236024882845927e-04,-9.793583395723967300e+00
9.999999999999994449e-01,-7.871627448448579884e-04,-9.793583362963408590e+00
9.999999999999994449e-01,-7.879018872646520802e-04,-9.793583330172076273e+00
9.999999999999994449e-01,-7.886410297477262823e-04,-9.793583297349968575e+00
9.999999999999994449e-01,-7.893801722941405511e-04,-9.793583264497089047e+00
9.999999999999994449e-01,-7.901193149039532166e-04,-9.793583231613432361e+00
9.999999999999994449e-01,-7.908584575772246690e-04,-9.793583198698998515e+00
9.999999999999994449e-01,-7.915976003140138889e-04,-9.793583165753791064e+00
9.999999999999994449e-01,-7.923367431143799652e-04,-9.793583132777808231e+00
9.999999999999994449e-01,-7.930758859783825290e-04,-9.793583099771050016e+00
9.999999999999994449e-01,-7.938150289060809947e-04,-9.793583066733519971e+00
9.999999999999994449e-01,-7.945541718975348850e-04,-9.793583033665209214e+00
9.999999999999994449e-01,-7.952933149528032888e-04,-9.793583000566124852e+00
9.999999999999994449e-01,-7.960324580719457289e-04,-9.793582967436268660e+00
9.999999999999994449e-01,-7.967716012550217280e-04,-9.793582934275633534e+00
9.999999999999994449e-01,-7.975107445020900498e-04,-9.793582901084223025e+00
9.999999999999994449e-01,-7.982498878132107591e-04,-9.793582867862040686e+00
9.999999999999994449e-01,-7.989890311884433787e-04,-9.793582834609082965e+00
9.999999999999994449e-01,-7.997281746278463469e-04,-9.793582801325348086e+00
9.999999999999994449e-01,-8.004673181314798372e-04,-9.793582768010839601e+00
9.999999999999994449e-01,-8.012064616994030468e-04,-9.793582734665552181e+00
9.999999999999994449e-01,-8.019456053316750647e-04,-9.793582701289491155e+00
9.999999999999994449e-01,-8.026847490283558475e-04,-9.793582667882658299e+00
9.999999999999994449e-01,-8.034238927895043757e-04,-9.793582634445046509e+00
9.999999999999994449e-01,-8.041630366151799551e-04,-9.793582600976662889e+00
9.999999999999994449e-01,-8.049021805054421084e-04,-9.793582567477500334e+00
9.999999999999994449e-01,-8.056413244603502499e-04,-9.793582533947565949e+00
9.999999999999994449e-01,-8.063804684799639024e-04,-9.793582500386852630e+00
9.999999999999994449e-01,-8.071196125643419379e-04,-9.793582466795367480e+00
9.999999999999994449e-01,-8.078587567135443129e-04,-9.793582433173105173e+00
9.999999999999994449e-01,-8.085979009276298996e-04,-9.793582399520069259e+00
9.999999999999994449e-01,-8.093370452066585459e-04,-9.793582365836256187e+00
9.999999999999994449e-01,-8.100761895506894492e-04,-9.793582332121671286e+00
9.999999999999994449e-01,-8.108153339597819155e-04,-9.793582298376311002e+00
9.999999999999994449e-01,-8.115544784339951421e-04,-9.793582264600171783e+00
9.999999999999994449e-01,-8.122936229733891938e-04,-9.793582230793260734e+00
9.999999999999994449e-01,-8.130327675780226176e-04,-9.793582196955572527e+00
9.999999999999994449e-01,-8.137719122479553698e-04,-9.793582163087110715e+00
9.999999999999994449e-01,-8.145110569832465395e-04,-9.793582129187871743e+00
9.999999999999994449e-01,-8.152502017839556494e-04,-9.793582095257857389e+00
9.999999999999994449e-01,-8.159893466501418969e-04,-9.793582061297067654e+00
9.999999999999994449e-01,-8.167284915818650215e-04,-9.793582027305506088e+00
9.999999999999994449e-01,-8.174676365791837870e-04,-9.793581993283165588e+00
9.999999999999994449e-01,-8.182067816421581498e-04,-9.793581959230051481e+00
9.999999999999994449e-01,-8.189459267708475241e-04,-9.793581925146163769e+00
9.999999999999994449e-01,-8.196850719653106737e-04,-9.793581891031498898e+00
9.999999999999994449e-01,-8.204242172256077719e-04,-9.793581856886062198e+00
9.999999999999994449e-01,-8.211633625517975824e-04,-9.793581822709848339e+00
9.999999999999994449e-01,-8.219025079439395195e-04,-9.793581788502855545e+00
9.999999999999994449e-01,-8.226416534020935395e-04,-9.793581754265092698e+00
9.999999999999994449e-01,-8.233807989263182978e-04,-9.793581719996550916e+00
9.999999999999994449e-01,-8.241199445166736423e-04,-9.793581685697235528e+00
9.999999999999994449e-01,-8.248590901732185537e-04,-9.793581651367146534e+00
9.999999999999994449e-01,-8.255982358960132052e-04,-9.793581617006280382e+00
9.999999999999994449e-01,-8.263373816851159268e-04,-9.793581582614640624e+00
9.999999999999994449e-01,-8.270765275405868918e-04,-9.793581548192223707e+00
9.999999999999994449e-01,-8.278156734624850807e-04,-9.793581513739033184e+00
9.999999999999994449e-01,-8.285548194508702332e-04,-9.793581479255067279e+00
9.999999999999994449e-01,-8.292939655058011129e-04,-9.793581444740325992e+00
9.999999999999994449e-01,-8.300331116273374594e-04,-9.793581410194807546e+00
9.999999999999994449e-01,-8.307722578155389039e-04,-9.793581375618519047e+00
9.999999999999994449e-01,-8.315114040704645352e-04,-9.793581341011449837e+00
9.999999999999994449e-01,-8.322505503921738762e-04,-9.793581306373610573e+00
9.999999999999994449e-01,-8.329896967807259075e-04,-9.793581271704992375e+00
9.999999999999994449e-01,-8.337288432361806938e-04,-9.793581237005598794e+00
9.999999999999994449e-01,-8.344679897585969989e-04,-9.793581202275429831e+00
9.999999999999994449e-01,-8.352071363480345623e-04,-9.793581167514487262e+00
9.999999999999994449e-01,-8.359462830045525815e-04,-9.793581132722771088e+00
9.999999999999994449e-01,-8.366854297282106875e-04,-9.793581097900277754e+00
9.999999999999994449e-01,-8.374245765190677527e-04,-9.793581063047009039e+00
9.999999999999994449e-01,-8.381637233771834080e-04,-9.793581028162966717e+00
9.999999999999994449e-01,-8.389028703026172847e-04,-9.793580993248143685e+00
9.999999999999994449e-01,-8.396420172954286885e-04,-9.793580958302554151e+00
9.999999999999994449e-01,-8.403811643556768169e-04,-9.793580923326185683e+00
9.999999999999994449e-01,-8.411203114834211927e-04,-9.793580888319040056e+00
9.999999999999994449e-01,-8.418594586787210132e-04,-9.793580853281120824e+00
9.999999999999994449e-01,-8.425986059416356927e-04,-9.793580818212427985e+00
9.999999999999994449e-01,-8.433377532722248623e-04,-9.793580783112957988e+00
9.999999999999994449e-01,-8.440769006705476111e-04,-9.793580747982712609e+00
9.999999999999994449e-01,-8.448160481366634618e-04,-9.793580712821691847e+00
9.999999999999994449e-01,-8.455551956706317202e-04,-9.793580677629897480e+00
9.999999999999994449e-01,-8.462943432725119090e-04,-9.793580642407324177e+00
9.999999999999994449e-01,-8.470334909423631172e-04,-9.793580607153979045e+00
9.999999999999994449e-01,-8.477726386802451929e-04,-9.793580571869860307e+00
9.999999999999994449e-01,-8.485117864862168997e-04,-9.793580536554966187e+00
9.999999999999994449e-01,-8.492509343603381940e-04,-9.793580501209291356e+00
9.999999999999994449e-01,-8.499900823026682734e-04,-9.793580465832848247e+00
9.999999999999994449e-01,-8.507292303132664435e-04,-9.793580430425624428e+00
9.999999999999994449e-01,-8.514683783921917935e-04,-9.793580394987628779e+00
9.999999999999994449e-01,-8.522075265395042797e-04,-9.793580359518859524e+00
9.999999999999994449e-01,-8.529466747552628828e-04,-9.793580324019309558e+00
9.999999999999994449e-01,-8.536858230395271254e-04,-9.793580288488987762e+00
9.999999999999994449e-01,-8.544249713923565302e-04,-9.793580252927892360e+00
9.999999999999994449e-01,-8.551641198138101863e-04,-9.793580217336019800e+00
9.999999999999994449e-01,-8.559032683039478331e-04,-9.793580181713371857e+00
9.999999999999994449e-01,-8.566424168628282345e-04,-9.793580146059946756e+00
9.999999999999994449e-01,-8.573815654905114552e-04,-9.793580110375749825e+00
9.999999999999994449e-01,-8.581207141870563675e-04,-9.793580074660775736e+00
9.999999999999994449e-01,-8.588598629525228192e-04,-9.793580038915028041e+00
9.999999999999994449e-01,-8.595990117869696827e-04,-9.793580003138506740e+00
9.999999999999994449e-01,-8.603381606904569141e-04,-9.793579967331206504e+00
9.999999999999994449e-01,-8.610773096630431689e-04,-9.793579931493134438e+00
9.999999999999994449e-01,-8.618164587047886203e-04,-9.793579895624283438e+00
9.999999999999994449e-01,-8.625556078157520321e-04,-9.793579859724664161e+00
9.999999999999994449e-01,-8.632947569959931438e-04,-9.793579823794260619e+00
9.999999999999994449e-01,-8.640339062455709360e-04,-9.793579787833088801e+00
9.999999999999994449e-01,-8.647730555645450398e-04,-9.793579751841138048e+00
9.999999999999994449e-01,-8.655122049529751947e-04,-9.793579715818411913e+00
9.999999999999994449e-01,-8.662513544109202730e-04,-9.793579679764912171e+00
9.999999999999994449e-01,-8.669905039384396888e-04,-9.793579643680638824e+00
9.999999999999994449e-01,-8.677296535355929650e-04,-9.793579607565586542e+00
9.999999999999994449e-01,-8.684688032024395158e-04,-9.793579571419760654e+00
9.999999999999994449e-01,-8.692079529390386470e-04,-9.793579535243161160e+00
9.999999999999994449e-01,-8.699471027454497730e-04,-9.793579499035784508e+00
9.999999999999994449e-01,-8.706862526217323079e-04,-9.793579462797636026e+00
9.999999999999994449e-01,-8.714254025679454493e-04,-9.793579426528708609e+00
9.999999999999994449e-01,-8.721645525841488283e-04,-9.793579390229007586e+00
9.999999999999994449e-01,-8.729037026704016423e-04,-9.793579353898529405e+00
9.999999999999994449e-01,-8.736428528267630887e-04,-9.793579317537279394e+00
9.999999999999994449e-01,-8.743820030532933408e-04,-9.793579281145254001e+00
9.999999999999994449e-01,-8.751211533500508370e-04,-9.793579244722451449e+00
9.999999999999994449e-01,-8.758603037170956422e-04,-9.793579208268873515e+00
9.999999999999994449e-01,-8.765994541544864117e-04,-9.793579171784523751e+00
9.999999999999994449e-01,-8.773386046622832102e-04,-9.793579135269395053e+00
9.999999999999994449e-01,-8.780777552405450185e-04,-9.793579098723492748e+00
9.999999999999994449e-01,-8.788169058893314676e-04,-9.793579062146813285e+00
9.999999999999994449e-01,-8.795560566087018634e-04,-9.793579025539360217e+00
9.999999999999994449e-01,-8.802952073987154033e-04,-9.793578988901131765e+00
9.999999999999994449e-01,-8.810343582594316100e-04,-9.793578952232127932e+00
9.999999999999994449e-01,-8.817735091909101146e-04,-9.793578915532352269e+00
9.999999999999994449e-01,-8.825126601932095725e-04,-9.793578878801797671e+00
9.999999999999994449e-01,-8.832518112663904821e-04,-9.793578842040469468e+00
9.999999999999994449e-01,-8.839909624105110652e-04,-9.793578805248364105e+00
9.999999999999994449e-01,-8.847301136256314948e-04,-9.793578768425485137e+00
9.999999999999994449e-01,-8.854692649118108601e-04,-9.793578731571830787e+00
9.999999999999994449e-01,-8.862084162691083586e-04,-9.793578694687401054e+00
9.999999999999994449e-01,-8.869475676975836212e-04,-9.793578657772195939e+00
9.999999999999994449e-01,-8.876867191972958454e-04,-9.793578620826215442e+00
9.999999999999994449e-01,-8.884258707683048793e-04,-9.793578583849463115e+00
9.999999999999994449e-01,-8.891650224106694865e-04,-9.793578546841930077e+00
9.999999999999994449e-01,-8.899041741244494066e-04,-9.793578509803625209e+00
9.999999999999994449e-01,-8.906433259097038370e-04,-9.793578472734546736e+00
9.999999999999994449e-01,-8.913824777664924089e-04,-9.793578435634689328e+00
9.999999999999994449e-01,-8.921216296948742113e-04,-9.793578398504060090e+00
9.999999999999994449e-01,-8.928607816949087669e-04,-9.793578361342655469e+00
9.999999999999994449e-01,-8.935999337666554899e-04,-9.793578324150473691e+00
9.999999999999994449e-01,-8.943390859101736862e-04,-9.793578286927516530e+00
9.999999999999994449e-01,-8.950782381255227701e-04,-9.793578249673783986e+00
9.999999999999994449e-01,-8.958173904127619391e-04,-9.793578212389277837e+00
9.999999999999994449e-01,-8.965565427719511494e-04,-9.793578175073996306e+00
9.999999999999994449e-01,-8.972956952031488397e-04,-9.793578137727939392e+00
9.999999999999994449e-01,-8.980348477064152915e-04,-9.793578100351108873e+00
9.999999999999994449e-01,-8.987740002818093770e-04,-9.793578062943501195e+00
9.999999999999994449e-01,-8.995131529293908359e-04,-9.793578025505118134e+00
9.999999999999994449e-01,-9.002523056492186485e-04,-9.793577988035961468e+00
9.999999999999994449e-01,-9.009914584413523378e-04,-9.793577950536027643e+00
9.999999999999994449e-01,-9.017306113058513178e-04,-9.793577913005320212e+00
9.999999999999994449e-01,-9.024697642427750030e-04,-9.793577875443837399e+00
9.999999999999994449e-01,-9.032089172521826992e-04,-9.793577837851579204e+00
9.999999999999994449e-01,-9.039480703341339291e-04,-9.793577800228543850e+00
9.999999999999994449e-01,-9.046872234886877816e-04,-9.793577762574736667e+00
9.999999999999994449e-01,-9.054263767159041049e-04,-9.793577724890152325e+00
9.999999999999994449e-01,-9.061655300158416625e-04,-9.793577687174792601e+00
9.999999999999994449e-01,-9.069046833885605194e-04,-9.793577649428659271e+00
9.999999999999994449e-01,-9.076438368341193308e-04,-9.793577611651750559e+00
9.999999999999994449e-01,-9.083829903525781615e-04,-9.793577573844068240e+00
9.999999999999994449e-01,-9.091221439439959922e-04,-9.793577536005605211e+00
9.999999999999994449e-01,-9.098612976084321288e-04,-9.793577498136372128e+00
9.999999999999994449e-01,-9.106004513459463106e-04,-9.793577460236360110e+00
9.999999999999994449e-01,-9.113396051565976269e-04,-9.793577422305576263e+00
9.999999999999994449e-01,-9.120787590404454918e-04,-9.793577384344017034e+00
9.999999999999994449e-01,-9.128179129975493196e-04,-9.793577346351680646e+00
9.999999999999994449e-01,-9.135570670279685246e-04,-9.793577308328572428e+00
9.999999999999994449e-01,-9.142962211317626296e-04,-9.793577270274685276e+00
9.999999999999994449e-01,-9.150353753089906150e-04,-9.793577232190026294e+00
9.999999999999994449e-01,-9.157745295597123289e-04,-9.793577194074588377e+00
9.999999999999994449e-01,-9.165136838839867519e-04,-9.793577155928378630e+00
9.999999999999994449e-01,-9.172528382818736234e-04,-9.793577117751388172e+00
9.999999999999994449e-01,-9.179919927534319242e-04,-9.793577079543627661e+00
9.999999999999994449e-01,-9.187311472987215021e-04,-9.793577041305091768e+00
9.999999999999994449e-01,-9.194703019178012294e-04,-9.793577003035780493e+00
9.999999999999994449e-01,-9.202094566107305203e-04,-9.793576964735692059e+00
9.999999999999994449e-01,-9.209486113775694396e-04,-9.793576926404830019e+00
9.999999999999994449e-01,-9.216877662183765342e-04,-9.793576888043194373e+00
9.999999999999994449e-01,-9.224269211332117606e-04,-9.793576849650781568e+00
9.999999999999994449e-01,-9.231660761221340992e-04,-9.793576811227595158e+00
9.999999999999994449e-01,-9.239052311852032897e-04,-9.793576772773629813e+00
9.999999999999994449e-01,-9.246443863224784211e-04,-9.793576734288892638e+00
9.999999999999994449e-01,-9.253835415340189077e-04,-9.793576695773378304e+00
9.999999999999994449e-01,-9.261226968198841636e-04,-9.793576657227090365e+00
9.999999999999994449e-01,-9.268618521801338201e-04,-9.793576618650027044e+00
9.999999999999994449e-01,-9.276010076148270746e-04,-9.793576580042188340e+00
9.999999999999994449e-01,-9.283401631240230161e-04,-9.793576541403576030e+00
9.999999999999994449e-01,-9.290793187077814926e-04,-9.793576502734186562e+00
9.999999999999994449e-01,-9.298184743661614847e-04,-9.793576464034019935e+00
9.999999999999994449e-01,-9.305576300992227318e-04,-9.793576425303081479e+00
9.999999999999994449e-01,-9.312967859070241062e-04,-9.793576386541369416e+00
9.999999999999994449e-01,-9.320359417896258896e-04,-9.793576347748878419e+00
9.999999999999994449e-01,-9.327750977470867372e-04,-9.793576308925612040e+00
9.999999999999994449e-01,-9.335142537794657381e-04,-9.793576270071575607e+00
9.999999999999994449e-01,-9.342534098868230654e-04,-9.793576231186758463e+00
9.999999999999994449e-01,-9.349925660692176999e-04,-9.793576192271169489e+00
9.999999999999994449e-01,-9.357317223267091642e-04,-9.793576153324805134e+00
9.999999999999994449e-01,-9.364708786593564389e-04,-9.793576114347661843e+00
9.999999999999994449e-01,-9.372100350672193719e-04,-9.793576075339744946e+00
9.999999999999994449e-01,-9.379491915503572691e-04,-9.793576036301056220e+00
9.999999999999994449e-01,-9.386883481088294364e-04,-9.793575997231590335e+00
9.999999999999994449e-01,-9.394275047426952881e-04,-9.793575958131350845e+00
9.999999999999994449e-01,-9.401666614520140216e-04,-9.793575919000334196e+00
9.999999999999994449e-01,-9.409058182368451595e-04,-9.793575879838542164e+00
9.999999999999994449e-01,-9.416449750972480078e-04,-9.793575840645976527e+00
9.999999999999994449e-01,-9.423841320332819807e-04,-9.793575801422631955e+00
9.999999999999994449e-01,-9.431232890450066009e-04,-9.793575762168515553e+00
9.999999999999994449e-01,-9.438624461324811744e-04,-9.793575722883621992e+00
9.999999999999994449e-01,-9.446016032957647900e-04,-9.793575683567954826e+00
9.999999999999994449e-01,-9.453407605349171874e-04,-9.793575644221512277e+00
9.999999999999994449e-01,-9.460799178499978892e-04,-9.793575604844294347e+00
9.999999999999994449e-01,-9.468190752410657676e-04,-9.793575565436301034e+00
9.999999999999994449e-01,-9.475582327081804538e-04,-9.793575525997534115e+00
9.999999999999994449e-01,-9.482973902514011452e-04,-9.793575486527991814e+00
9.999999999999994449e-01,-9.490365478707877981e-04,-9.793575447027672354e+00
9.999999999999994449e-01,-9.497757055663989595e-04,-9.793575407496579288e+00
9.999999999999994449e-01,-9.505148633382948025e-04,-9.793575367934710840e+00
9.999999999999994449e-01,-9.512540211865344163e-04,-9.793575328342065234e+00
9.999999999999994449e-01,-9.519931791111767815e-04,-9.793575288718647798e+00
9.999999999999994449e-01,-9.527323371122816374e-04,-9.793575249064454979e+00
9.999999999999994449e-01,-9.534714951899083985e-04,-9.793575209379486779e+00
9.999999999999994449e-01,-9.542106533441162622e-04,-9.793575169663739644e+00
9.999999999999994449e-01,-9.549498115749650764e-04,-9.793575129917222455e+00
9.999999999999994449e-01,-9.556889698825134965e-04,-9.793575090139926331e+00
9.999999999999994449e-01,-9.564281282668213703e-04,-9.793575050331856602e+00
9.999999999999994449e-01,-9.571672867279480039e-04,-9.793575010493013266e+00
9.999999999999994449e-01,-9.579064452659525946e-04,-9.793574970623390996e+00
9.999999999999994449e-01,-9.586456038808949904e-04,-9.793574930722995120e+00
9.999999999999994449e-01,-9.593847625728341719e-04,-9.793574890791825638e+00
9.999999999999994449e-01,-9.601239213418293365e-04,-9.793574850829878997e+00
9.999999999999994449e-01,-9.608630801879403322e-04,-9.793574810837156974e+00
9.999999999999994449e-01,-9.616022391112262480e-04,-9.793574770813663122e+00
9.999999999999994449e-01,-9.623413981117464981e-04,-9.793574730759392111e+00
9.999999999999994449e-01,-9.630805571895606054e-04,-9.793574690674343941e+00
9.999999999999994449e-01,-9.638197163447279840e-04,-9.793574650558523942e+00
9.999999999999994449e-01,-9.645588755773076145e-04,-9.793574610411925008e+00
9.999999999999994449e-01,-9.652980348873594534e-04,-9.793574570234556020e+00
9.999999999999994449e-01,-9.660371942749422644e-04,-9.793574530026409874e+00
9.999999999999994449e-01,-9.667763537401157870e-04,-9.793574489787484794e+00
9.999999999999994449e-01,-9.675155132829395439e-04,-9.793574449517789660e+00
9.999999999999994449e-01,-9.682546729034727327e-04,-9.793574409217317367e+00
9.999999999999994449e-01,-9.689938326017744422e-04,-9.793574368886066139e+00
9.999999999999994449e-01,-9.697329923779046288e-04,-9.793574328524046635e+00
9.999999999999994449e-01,-9.704721522319222733e-04,-9.793574288131249972e+00
9.999999999999994449e-01,-9.712113121638864645e-04,-9.793574247707676150e+00
9.999999999999994449e-01,-9.719504721738572673e-04,-9.793574207253326946e+00
9.999999999999994449e-01,-9.726896322618937708e-04,-9.793574166768202360e+00
9.999999999999994449e-01,-9.734287924280554975e-04,-9.793574126252304168e+00
9.999999999999994449e-01,-9.741679526724016450e-04,-9.793574085705632370e+00
9.999999999999994449e-01,-9.749071129949913022e-04,-9.793574045128183414e+00
9.999999999999994449e-01,-9.756462733958844256e-04,-9.793574004519959075e+00
9.999999999999994449e-01,-9.763854338751399957e-04,-9.793573963880959354e+00
9.999999999999994449e-01,-9.771245944328178605e-04,-9.793573923211186028e+00
9.999999999999994449e-01,-9.778637550689767838e-04,-9.793573882510637318e+00
9.999999999999994449e-01,-9.786029157836766135e-04,-9.793573841779311451e+00
9.999999999999994449e-01,-9.793420765769763302e-04,-9.793573801017210201e+00
9.999999999999994449e-01,-9.800812374489353482e-04,-9.793573760224337121e+00
9.999999999999994449e-01,-9.808203983996135154e-04,-9.793573719400685107e+00
9.999999999999994449e-01,-9.815595594290695957e-04,-9.793573678546259487e+00
9.999999999999994449e-01,-9.822987205373638706e-04,-9.793573637661060260e+00
9.999999999999994449e-01,-9.830378817245546703e-04,-9.793573596745085652e+00
9.999999999999994449e-01,-9.837770429907022763e-04,-9.793573555798332109e+00
9.999999999999994449e-01,-9.845162043358650188e-04,-9.793573514820808512e+00
9.999999999999994449e-01,-9.852553657601033962e-04,-9.793573473812505981e+00
9.999999999999994449e-01,-9.859945272634761722e-04,-9.793573432773429843e+00
9.999999999999994449e-01,-9.867336888460425445e-04,-9.793573391703578324e+00
9.999999999999994449e-01,-9.874728505078623608e-04,-9.793573350602953198e+00
9.999999999999994449e-01,-9.882120122489952523e-04,-9.793573309471550914e+00
9.999999999999994449e-01,-9.889511740694997659e-04,-9.793573268309373248e+00
9.999999999999994449e-01,-9.896903359694355327e-04,-9.793573227116421975e+00
9.999999999999994449e-01,-9.904294979488624008e-04,-9.793573185892695321e+00
9.999999999999994449e-01,-9.911686600078391338e-04,-9.793573144638191508e+00
9.999999999999994449e-01,-9.919078221464257966e-04,-9.793573103352914089e+00
9.999999999999994449e-01,-9.926469843646809361e-04,-9.793573062036863064e+00
9.999999999999994449e-01,-9.933861466626646170e-04,-9.793573020690034880e+00
9.999999999999994449e-01,-9.941253090404360369e-04,-9.793572979312434867e+00
9.999999999999994449e-01,-9.948644714980546099e-04,-9.793572937904055919e+00
9.999999999999994449e-01,-9.956036340355793168e-04,-9.793572896464899813e+00
9.999999999999994449e-01,-9.963427966530700054e-04,-9.793572854994971877e+00
9.999999999999994449e-01,-9.970819593505858731e-04,-9.793572813494268559e+00
9.999999999999994449e-01,-9.978211221281861176e-04,-9.793572771962791634e+00
9.999999999999994449e-01,-9.985602849859305866e-04,-9.793572730400537552e+00
9.999999999999994449e-01,-9.992994479238784776e-04,-9.793572688807506310e+00
9.999999999999994449e-01,-1.000038610942088771e-03,-9.793572647183705016e+00
9.999999999999994449e-01,-1.000777774040621532e-03,-9.793572605529124786e+00
9.999999999999994449e-01,-1.001516937219535525e-03,-9.793572563843769174e+00
9.999999999999994449e-01,-1.002256100478890379e-03,-9.793572522127639957e+00
9.999999999999994449e-01,-1.002995263818745294e-03,-9.793572480380735357e+00
9.999999999999994449e-01,-1.003734427239159899e-03,-9.793572438603055375e+00
9.999999999999994449e-01,-1.004473590740193609e-03,-9.793572396794600010e+00
9.999999999999994449e-01,-1.005212754321905405e-03,-9.793572354955371040e+00
9.999999999999994449e-01,-1.005951917984355135e-03,-9.793572313085364911e+00
9.999999999999994449e-01,-1.006691081727602213e-03,-9.793572271184583400e+00
9.999999999999994449e-01,-1.007430245551705619e-03,-9.793572229253028283e+00
9.999999999999994449e-01,-1.008169409456724985e-03,-9.793572187290696007e+00
9.999999999999994449e-01,-1.008908573442719291e-03,-9.793572145297590126e+00
9.999999999999994449e-01,-1.009647737509748386e-03,-9.793572103273710638e+00
9.999999999999994449e-01,-1.010386901657871466e-03,-9.793572061219053992e+00
9.999999999999994449e-01,-1.011126065887148163e-03,-9.793572019133621964e+00
9.999999999999994449e-01,-1.011865230197637024e-03,-9.793571977017416330e+00
9.999999999999994449e-01,-1.012604394589398764e-03,-9.793571934870435314e+00
9.999999999999994449e-01,-1.013343559062491713e-03,-9.793571892692675362e+00
9.999999999999994449e-01,-1.014082723616975719e-03,-9.793571850484145358e+00
9.999999999999994449e-01,-1.014821888252909763e-03,-9.793571808244838195e+00
9.999999999999994449e-01,-1.015561052970353475e-03,-9.793571765974755650e+00
9.999999999999994449e-01,-1.016300217769366488e-03,-9.793571723673897722e+00
9.999999999999994449e-01,-1.017039382650007781e-03,-9.793571681342266189e+00
9.999999999999994449e-01,-1.017778547612336985e-03,-9.793571638979857497e+00
9.999999999999994449e-01,-1.018517712656413299e-03,-9.793571596586675199e+00
9.999999999999994449e-01,-1.019256877782296136e-03,-9.793571554162717518e+00
9.999999999999994449e-01,-1.019996042990044694e-03,-9.793571511707982680e+00
9.999999999999994449e-01,-1.020735208279719038e-03,-9.793571469222474235e+00
9.999999999999994449e-01,-1.021474373651377714e-03,-9.793571426706192184e+00
9.999999999999994449e-01,-1.022213539105080787e-03,-9.793571384159131199e+00
9.999999999999994449e-01,-1.022952704640886805e-03,-9.793571341581300160e+00
9.999999999999994449e-01,-1.023691870258856048e-03,-9.793571298972690187e+00
9.999999999999994449e-01,-1.024431035959047281e-03,-9.793571256333304831e+00
9.999999999999994449e-01,-1.025170201741520352e-03,-9.793571213663144093e+00
9.999999999999994449e-01,-1.025909367606334241e-03,-9.793571170962211525e+00
9.999999999999994449e-01,-1.026648533553548579e-03,-9.793571128230501799e+00
9.999999999999994449e-01,-1.027387699583222347e-03,-9.793571085468016690e+00
9.999999999999994449e-01,-1.028126865695415393e-03,-9.793571042674756200e+00
9.999999999999994449e-01,-1.028866031890187131e-03,-9.793570999850722103e+00
9.999999999999994449e-01,-1.029605198167596542e-03,-9.793570956995910848e+00
9.999999999999994449e-01,-1.030344364527703256e-03,-9.793570914110327763e+00
9.999999999999994449e-01,-1.031083530970566473e-03,-9.793570871193967520e+00
9.999999999999994449e-01,-1.031822697496245821e-03,-9.793570828246830118e+00
9.999999999999994449e-01,-1.032561864104800499e-03,-9.793570785268919110e+00
9.999999999999994449e-01,-1.033301030796289705e-03,-9.793570742260234496e+00
9.999999999999994449e-01,-1.034040197570773286e-03,-9.793570699220772724e+00
9.999999999999994449e-01,-1.034779364428310439e-03,-9.793570656150535569e+00
9.999999999999994449e-01,-1.035518531368960363e-03,-9.793570613049526585e+00
9.999999999999994449e-01,-1.036257698392782688e-03,-9.793570569917736890e+00
9.999999999999994449e-01,-1.036996865499836395e-03,-9.793570526755175365e+00
9.999999999999994449e-01,-1.037736032690181115e-03,-9.793570483561840234e+00
9.999999999999994449e-01,-1.038475199963876695e-03,-9.793570440337726168e+00
9.999999999999994449e-01,-1.039214367320981684e-03,-9.793570397082840273e+00
9.999999999999994449e-01,-1.039953534761555928e-03,-9.793570353797177219e+00
9.999999999999994449e-01,-1.040692702285658626e-03,-9.793570310480737007e+00
9.999999999999994449e-01,-1.041431869893349408e-03,-9.793570267133528517e+00
9.999999999999994449e-01,-1.042171037584687255e-03,-9.793570223755541093e+00
9.999999999999994449e-01,-1.042910205359732232e-03,-9.793570180346778287e+00
9.999999999999994449e-01,-1.043649373218542668e-03,-9.793570136907238322e+00
9.999999999999994449e-01,-1.044388541161178846e-03,-9.793570093436926527e+00
9.999999999999994449e-01,-1.045127709187699963e-03,-9.793570049935835797e+00
9.999999999999994449e-01,-1.045866877298165000e-03,-9.793570006403973238e+00
9.999999999999994449e-01,-1.046606045492633804e-03,-9.793569962841335297e+00
9.999999999999994449e-01,-1.047345213771165356e-03,-9.793569919247923750e+00
9.999999999999994449e-01,-1.048084382133819504e-03,-9.793569875623731491e+00
9.999999999999994449e-01,-1.048823550580655229e-03,-9.793569831968767403e+00
9.999999999999994449e-01,-1.049562719111732162e-03,-9.793569788283029709e+00
9.999999999999994449e-01,-1.050301887727109499e-03,-9.793569744566514856e+00
9.999999999999994449e-01,-1.051041056426846440e-03,-9.793569700819226398e+00
9.999999999999994449e-01,-1.051780225211002397e-03,-9.793569657041160781e+00
9.999999999999994449e-01,-1.052519394079637653e-03,-9.793569613232319782e+00
9.999999999999994449e-01,-1.053258563032810537e-03,-9.793569569392706953e+00
9.999999999999994449e-01,-1.053997732070580898e-03,-9.793569525522316965e+00
9.999999999999994449e-01,-1.054736901193007717e-03,-9.793569481621149819e+00
9.999999999999994449e-01,-1.055476070400151057e-03,-9.793569437689210844e+00
9.999999999999994449e-01,-1.056215239692069466e-03,-9.793569393726494710e+00
9.999999999999994449e-01,-1.056954409068822792e-03,-9.793569349733003193e+00
9.999999999999994449e-01,-1.057693578530470666e-03,-9.793569305708738071e+00
9.999999999999994449e-01,-1.058432748077071852e-03,-9.793569261653697566e+00
9.999999999999994449e-01,-1.059171917708686197e-03,-9.793569217567881680e+00
9.999999999999994449e-01,-1.059911087425373117e-03,-9.793569173451286858e+00
9.999999999999994449e-01,-1.060650257227191591e-03,-9.793569129303923759e+00
9.999999999999994449e-01,-1.061389427114201034e-03,-9.793569085125781726e+00
9.999999999999994449e-01,-1.062128597086461294e-03,-9.793569040916864310e+00
9.999999999999994449e-01,-1.062867767144031134e-03,-9.793568996677171512e+00
9.999999999999994449e-01,-1.063606937286970837e-03,-9.793568952406703332e+00
9.999999999999994449e-01,-1.064346107515338731e-03,-9.793568908105461546e+00
9.999999999999994449e-01,-1.065085277829194666e-03,-9.793568863773444377e+00
9.999999999999994449e-01,-1.065824448228598273e-03,-9.793568819410650050e+00
9.999999999999994449e-01,-1.066563618713608315e-03,-9.793568775017085670e+00
9.999999999999994449e-01,-1.067302789284284422e-03,-9.793568730592742355e+00
9.999999999999994449e-01,-1.068041959940686661e-03,-9.793568686137625434e+00
9.999999999999994449e-01,-1.068781130682873578e-03,-9.793568641651729578e+00
9.999999999999994449e-01,-1.069520301510904804e-03,-9.793568597135063669e+00
9.999999999999994449e-01,-1.070259472424839537e-03,-9.793568552587620601e+00
9.999999999999994449e-01,-1.070998643424737624e-03,-9.793568508009402152e+00
9.999999999999994449e-01,-1.071737814510657612e-03,-9.793568463400406543e+00
9.999999999999994449e-01,-1.072476985682659784e-03,-9.793568418760640881e+00
9.999999999999994449e-01,-1.073216156940803336e-03,-9.793568374090096285e+00
9.999999999999994449e-01,-1.073955328285147032e-03,-9.793568329388776306e+00
9.999999999999994449e-01,-1.074694499715750937e-03,-9.793568284656682721e+00
9.999999999999994449e-01,-1.075433671232674249e-03,-9.793568239893811977e+00
9.999999999999994449e-01,-1.076172842835976164e-03,-9.793568195100167628e+00
9.999999999999994449e-01,-1.076912014525716532e-03,-9.793568150275749673e+00
9.999999999999994449e-01,-1.077651186301953898e-03,-9.793568105420554559e+00
9.999999999999994449e-01,-1.078390358164747894e-03,-9.793568060534582287e+00
9.999999999999994449e-01,-1.079129530114158802e-03,-9.793568015617838185e+00
9.999999999999994449e-01,-1.079868702150244952e-03,-9.793567970670318701e+00
9.999999999999994449e-01,-1.080607874273065974e-03,-9.793567925692022058e+00
9.999999999999994449e-01,-1.081347046482681717e-03,-9.793567880682951809e+00
9.999999999999994449e-01,-1.082086218779150944e-03,-9.793567835643107955e+00
9.999999999999994449e-01,-1.082825391162533287e-03,-9.793567790572483389e+00
9.999999999999994449e-01,-1.083564563632887943e-03,-9.793567745471088770e+00
9.999999999999994449e-01,-1.084303736190274760e-03,-9.793567700338916993e+00
9.999999999999994449e-01,-1.085042908834752502e-03,-9.793567655175969833e+00
9.999999999999994449e-01,-1.085782081566381233e-03,-9.793567609982249067e+00
9.999999999999994449e-01,-1.086521254385219718e-03,-9.793567564757751143e+00
9.999999999999994449e-01,-1.087260427291328021e-03,-9.793567519502481389e+00
9.999999999999994449e-01,-1.087999600284764688e-03,-9.793567474216436253e+00
9.999999999999994449e-01,-1.088738773365589569e-03,-9.793567428899615734e+00
9.999999999999994449e-01,-1.089477946533862077e-03,-9.793567383552016281e+00
9.999999999999994449e-01,-1.090217119789641193e-03,-9.793567338173641446e+00
9.999999999999994449e-01,-1.090956293132987198e-03,-9.793567292764494780e+00
9.999999999999994449e-01,-1.091695466563958206e-03,-9.793567247324572733e+00
9.999999999999994449e-01,-1.092434640082614499e-03,-9.793567201853875304e+00
9.999999999999994449e-01,-1.093173813689015490e-03,-9.793567156352404268e+00
9.999999999999994449e-01,-1.093912987383219943e-03,-9.793567110820156074e+00
9.999999999999994449e-01,-1.094652161165287707e-03,-9.793567065257130722e+00
9.999999999999994449e-01,-1.095391335035277545e-03,-9.793567019663333539e+00
9.999999999999994449e-01,-1.096130508993250173e-03,-9.793566974038760975e+00
9.999999999999994449e-01,-1.096869683039263486e-03,-9.793566928383411252e+00
9.999999999999994449e-01,-1.097608857173377550e-03,-9.793566882697286147e+00
9.999999999999994449e-01,-1.098348031395651779e-03,-9.793566836980389212e+00
9.999999999999994449e-01,-1.099087205706145371e-03,-9.793566791232716895e+00
9.999999999999994449e-01,-1.099826380104917956e-03,-9.793566745454265643e+00
9.999999999999994449e-01,-1.100565554592028731e-03,-9.793566699645040785e+00
9.999999999999994449e-01,-1.101304729167536895e-03,-9.793566653805042321e+00
9.999999999999994449e-01,-1.102043903831502079e-03,-9.793566607934268475e+00
9.999999999999994449e-01,-1.102783078583983480e-03,-9.793566562032719247e+00
9.999999999999994449e-01,-1.103522253425040728e-03,-9.793566516100392860e+00
9.999999999999994449e-01,-1.104261428354733456e-03,-9.793566470137292868e+00
9.999999999999994449e-01,-1.105000603373119993e-03,-9.793566424143417493e+00
9.999999999999994449e-01,-1.105739778480260621e-03,-9.793566378118768512e+00
9.999999999999994449e-01,-1.106478953676214537e-03,-9.793566332063344149e+00
9.999999999999994449e-01,-1.107218128961041156e-03,-9.793566285977140851e+00
9.999999999999994449e-01,-1.107957304334799675e-03,-9.793566239860165723e+00
9.999999999999994449e-01,-1.108696479797549291e-03,-9.793566193712415213e+00
9.999999999999994449e-01,-1.109435655349349853e-03,-9.793566147533889321e+00
9.999999999999994449e-01,-1.110174830990260557e-03,-9.793566101324588047e+00
9.999999999999994449e-01,-1.110914006720340819e-03,-9.793566055084511390e+00
9.999999999999994449e-01,-1.111653182539649619e-03,-9.793566008813661128e+00
9.999999999999994449e-01,-1.112392358448247021e-03,-9.793565962512035483e+00
9.999999999999994449e-01,-1.113131534446191789e-03,-9.793565916179632680e+00
9.999999999999994449e-01,-1.113870710533543772e-03,-9.793565869816456271e+00
9.999999999999994449e-01,-1.114609886710361949e-03,-9.793565823422500927e+00
9.999999999999994449e-01,-1.115349062976706170e-03,-9.793565776997777306e+00
9.999999999999994449e-01,-1.116088239332635196e-03,-9.793565730542272973e+00
9.999999999999994449e-01,-1.116827415778209095e-03,-9.793565684055996812e+00
9.999999999999994449e-01,-1.117566592313486845e-03,-9.793565637538947044e+00
9.999999999999994449e-01,-1.118305768938527645e-03,-9.793565590991118341e+00
9.999999999999994449e-01,-1.119044945653391125e-03,-9.793565544412512480e+00
9.999999999999994449e-01,-1.119784122458136917e-03,-9.793565497803136566e+00
9.999999999999994449e-01,-1.120523299352823784e-03,-9.793565451162983493e+00
9.999999999999994449e-01,-1.121262476337511358e-03,-9.793565404492056814e+00
9.999999999999994449e-01,-1.122001653412259487e-03,-9.793565357790349424e+00
9.999999999999994449e-01,-1.122740830577126933e-03,-9.793565311057871980e+00
9.999999999999994449e-01,-1.123480007832173546e-03,-9.793565264294617378e+00
9.999999999999994449e-01,-1.124219185177458306e-03,-9.793565217500590947e+00
9.999999999999994449e-01,-1.124958362613040627e-03,-9.793565170675787357e+00
9.999999999999994449e-01,-1.125697540138980140e-03,-9.793565123820206608e+00
9.999999999999994449e-01,-1.126436717755336043e-03,-9.793565076933854030e+00
9.999999999999994449e-01,-1.127175895462167532e-03,-9.793565030016724293e+00
9.999999999999994449e-01,-1.127915073259534457e-03,-9.793564983068819174e+00
9.999999999999994449e-01,-1.128654251147495798e-03,-9.793564936090142226e+00
9.999999999999994449e-01,-1.129393429126111402e-03,-9.793564889080686342e+00
9.999999999999994449e-01,-1.130132607195440033e-03,-9.793564842040455076e+00
9.999999999999994449e-01,-1.130871785355541757e-03,-9.793564794969450205e+00
9.999999999999994449e-01,-1.131610963606475336e-03,-9.793564747867671727e+00
9.999999999999994449e-01,-1.132350141948300186e-03,-9.793564700735117867e+00
9.999999999999994449e-01,-1.133089320381076154e-03,-9.793564653571785072e+00
9.999999999999994449e-01,-1.133828498904862004e-03,-9.793564606377678672e+00
9.999999999999994449e-01,-1.134567677519717583e-03,-9.793564559152798665e+00
9.999999999999994449e-01,-1.135306856225702090e-03,-9.793564511897143277e+00
9.999999999999994449e-01,-1.136046035022875156e-03,-9.793564464610712506e+00
9.999999999999994449e-01,-1.136785213911295977e-03,-9.793564417293504576e+00
9.999999999999994449e-01,-1.137524392891023535e-03,-9.793564369945524817e+00
9.999999999999994449e-01,-1.138263571962117894e-03,-9.793564322566769675e+00
9.999999999999994449e-01,-1.139002751124638252e-03,-9.793564275157235599e+00
9.999999999999994449e-01,-1.139741930378643589e-03,-9.793564227716929693e+00
9.999999999999994449e-01,-1.140481109724193537e-03,-9.793564180245848405e+00
9.999999999999994449e-01,-1.141220289161347509e-03,-9.793564132743989958e+00
9.999999999999994449e-01,-1.141959468690165137e-03,-9.793564085211359682e+00
9.999999999999994449e-01,-1.142698648310705401e-03,-9.793564037647950471e+00
9.999999999999994449e-01,-1.143437828023027500e-03,-9.793563990053771207e+00
