accel_x (m/s^2),accel_y (m/s^2),accel_z (m/s^2)
-2.791093182579892785e-05,-2.427772192397329321e-04,-9.787973999934479252e+00
8.184856350816199777e-03,-5.682615995809341472e-03,-9.786099736713813613e+00
1.289003888023290256e-03,-5.529406991338912600e-03,-9.789471244085087065e+00
5.998593681274389097e-04,6.749183424587283046e-04,-9.793817136095899656e+00
8.507192382744875950e-03,-8.810907326714219681e-03,-9.792962568757257458e+00
1.359868324579985256e-03,-4.272322838485090660e-03,-9.796733606593832633e+00
-1.377907257947371192e-03,3.595272253030144631e-03,-9.789909989207448149e+00
3.369780073960680199e-03,3.472165071012275634e-04,-9.785691408195958729e+00
-2.930184880645420476e-03,6.869630846167435433e-03,-9.796327533610242000e+00
-1.802213197737505832e-03,-4.605396228321250243e-03,-9.795565876533371963e+00
-2.700399376102935282e-03,-5.311165286675667216e-03,-9.782348388688454577e+00
5.547732961011070732e-03,-1.019339540360587881e-02,-9.787181731080963232e+00
6.774836468269248039e-04,8.483603554406624059e-03,-9.796604468816575206e+00
-7.521185681925451763e-04,-8.279136117688840751e-03,-9.802198168957524160e+00
8.990736032085038876e-04,-3.757507211621632752e-03,-9.793839305821901320e+00
1.448513842617960338e-04,-2.065474134394671042e-03,-9.781280762642907689e+00
1.020155097373729933e-02,-1.180579423416410791e-02,-9.798636641387441060e+00
-2.948537965663813550e-04,-5.260671258614287721e-03,-9.791295692385807214e+00
1.885663819833199905e-03,-3.192531194178699350e-04,-9.796137754438078105e+00
8.119954131870936453e-03,1.170642655196201670e-02,-9.787754226259655965e+00
3.901109230251633125e-03,-4.227490671193132737e-03,-9.790971117424582815e+00
-4.024669115906754822e-04,-7.749457212777130510e-03,-9.796490691248301630e+00
-5.570151880760746202e-03,-6.291262975984788369e-03,-9.793505293310563076e+00
-5.952466042772910871e-04,5.115068997116141349e-04,-9.796020513296463506e+00
4.888053245495489231e-03,2.208744740082048061e-03,-9.798865152428389180e+00
1.913899905218807620e-03,3.604456751293574901e-03,-9.792475270421428846e+00
-5.886094355247232374e-03,-1.282414609544512037e-03,-9.790177899750865720e+00
1.961299775080424003e-03,-2.452822685538450561e-04,-9.796304905236160820e+00
2.035977497586583061e-03,2.123915998360416564e-03,-9.788485935357737588e+00
6.569565500749472570e-03,-4.342005175952489034e-03,-9.787503311821570406e+00
-2.853848959838268303e-03,2.681945155569088243e-03,-9.794160605738793990e+00
6.373807681296836218e-03,2.429262043854811016e-03,-9.789991784808131925e+00
5.534399122634646104e-04,-1.304395953921613002e-03,-9.795184033669928070e+00
-8.125696594994385319e-04,3.367435024839633174e-03,-9.795738990068981522e+00
-4.553555962353907430e-03,3.524024765311898656e-03,-9.793538883083261481e+00
3.459327130048360423e-03,6.907231735141517760e-03,-9.786647991031156124e+00
1.441149961511815555e-03,-7.193097064201597890e-05,-9.797124581640010987e+00
-3.907182923946964440e-03,8.474789904056431646e-04,-9.802702102142760054e+00
-6.048234252470980309e-03,-2.495323055824655040e-03,-9.792422702351503361e+00
-3.546949779805187958e-04,4.642034595390766814e-03,-9.797784144918136207e+00
1.409130526139993527e-03,1.328741170759537623e-03,-9.789460706321165162e+00
3.543011519313478928e-03,-2.983529738014324955e-04,-9.797178524880225226e+00
-6.557166464084164016e-03,-1.273267880595357936e-03,-9.804719403709093228e+00
-3.250451818727680283e-04,-2.041888884949200674e-03,-9.786574015001589189e+00
4.926957223630710342e-03,1.047758002795442242e-03,-9.795734561312853472e+00
-3.259976342225320064e-03,-3.079026895129237124e-03,-9.790230726551653717e+00
1.740797690113219916e-03,-9.682958304632264916e-04,-9.794065231356311685e+00
-2.022728160633845747e-03,6.598042527817971764e-04,-9.793763809362021178e+00
2.702585289692921965e-03,-8.030205945373271315e-05,-9.792646020376592375e+00
-1.084180033223223691e-02,-2.123730504961302262e-03,-9.801977686174494053e+00
3.114399143731855311e-03,2.096111850920851036e-03,-9.793208919606406937e+00
9.513813059089958925e-04,1.703702424492898378e-03,-9.789931119537028437e+00
-2.518999582043023652e-03,-8.553824093884807717e-03,-9.785875127091106407e+00
2.574065059000744775e-03,4.813154138601233832e-03,-9.792623716105401499e+00
-1.526172255335340447e-03,5.780908371728864237e-03,-9.798508924227348871e+00
5.619613484440870964e-03,-1.352006932312314154e-03,-9.787097945376331154e+00
4.025308364704912115e-03,-5.715516989684025183e-03,-9.790040563563524145e+00
7.275043031691378172e-04,-1.071195557459750890e-02,-9.791879079883694104e+00
-8.061274382936243696e-03,-3.452082656540816051e-03,-9.784406314645545777e+00
2.479241706062251718e-03,-1.609966238197702449e-03,-9.801439139715977689e+00
-7.401939332909915521e-03,-1.287609553712486992e-03,-9.792951717448117321e+00
-2.874889057666145994e-03,-3.090417937429002296e-03,-9.790864733833554823e+00
2.073131835621514884e-03,2.626128902251838055e-03,-9.796872843018238797e+00
-6.485612407324719067e-03,3.736433429173298838e-03,-9.795291857955405135e+00
6.246321908272223916e-03,8.917786955015319893e-05,-9.793148808941424477e+00
-7.851314169957079522e-03,-7.018415545112056259e-03,-9.794398449705525422e+00
-2.261024594786369829e-03,8.011481326040304982e-03,-9.790977964328437366e+00
-1.531940573455499097e-03,-4.010305432379202353e-03,-9.788791424864072610e+00
-1.937928973170016797e-03,-4.430242962503872645e-04,-9.785047072529749812e+00
1.004227684943436415e-02,-2.815682921927895044e-03,-9.801115656875611037e+00
7.873125404541280381e-04,7.717075260774194229e-04,-9.787743077396443780e+00
-6.564148444905241889e-04,-7.979138346400495947e-04,-9.788763162607764912e+00
-5.693097453011251169e-03,-1.233811774324126108e-02,-9.796613791080966749e+00
1.356886438191261994e-03,-4.614481986029600989e-03,-9.797083420084218730e+00
-9.332434606364856458e-03,1.243817903265806088e-02,-9.797412815913467909e+00
2.842184761195405956e-03,6.797816113622952988e-03,-9.782007571559679704e+00
1.550261313799640829e-03,2.993170610207071362e-03,-9.800532407200602592e+00
9.580941834979579338e-03,-4.686064841818150112e-03,-9.790334979062901510e+00
-5.147980764531475371e-03,6.585798413210919820e-03,-9.785141096260710825e+00
-1.116713411881936450e-02,8.168893654886006522e-03,-9.809426814521806648e+00
6.857387055593304427e-04,-4.901574417492158588e-03,-9.794818572771376353e+00
5.940926194004461820e-03,-5.695655567254796076e-03,-9.800032820568144842e+00
8.587610801563647133e-04,2.371795808273117166e-03,-9.792099609055682663e+00
-9.891361511196751884e-06,-1.549399382042335183e-03,-9.797875047909350599e+00
-6.601878998542011490e-03,7.141305179260966449e-04,-9.793349108678194526e+00
-2.938678867352727091e-03,2.478629889493468887e-03,-9.788374733926440641e+00
3.299944751192041264e-03,-1.704982386178420257e-03,-9.799028952046789698e+00
5.010474928179127312e-03,-8.177595749112210807e-03,-9.796996902699277143e+00
1.172398765583808865e-03,-3.068088624533091974e-03,-9.799163917521452660e+00
1.100222962180220573e-02,9.785733565265753494e-04,-9.794424846756987435e+00
-6.407542004566102282e-03,-5.660346977935955433e-03,-9.794712674603932356e+00
1.379925080467302471e-03,-2.741709417917895762e-03,-9.799692328138741360e+00
-4.405756914978070996e-03,-4.772020505091041989e-04,-9.799432062421123746e+00
-2.473894966413123925e-03,-1.275116712639713917e-03,-9.791474000358602936e+00
-4.446346625817597722e-03,-8.454187899180112473e-03,-9.798062371278296823e+00
-7.539684374261648205e-03,9.177109838445485484e-04,-9.796774359748255279e+00
5.419728162077666785e-04,-3.345908646844095516e-03,-9.794469381102747008e+00
3.101341518336150991e-03,7.953496848799933121e-04,-9.797942119440881115e+00
4.894738123892858686e-03,-9.742577909531362863e-04,-9.785499488815105451e+00
1.116462986889228248e-03,-5.415009833623288596e-03,-9.791575393056215049e+00
-4.727121179691182217e-04,-3.223552849397247604e-03,-9.803917361461792268e+00
5.270729972310926256e-03,3.408141262480161686e-03,-9.790580901751074094e+00
8.988688117253776019e-03,-8.038214777133350850e-03,-9.791939231942727417e+00
5.844683814109396906e-03,-5.098066502265104563e-05,-9.798327395170217002e+00
3.471366787439090530e-03,5.940912256300447461e-03,-9.795595053198042024e+00
-3.158029591526425738e-04,2.619360666411996597e-03,-9.787064748339082243e+00
6.104360118696132431e-03,-1.138515603555008589e-02,-9.792814098602526940e+00
8.490182390647063940e-03,2.931801398021291645e-03,-9.805149160487692583e+00
3.161329534486954744e-03,8.429449462712527465e-04,-9.796771194139013872e+00
-1.049006885665582783e-02,-9.165164686083501809e-04,-9.793261950637624835e+00
-1.665985772472908157e-03,-6.246032137456752897e-03,-9.794702511135296774e+00
-1.115592497562567682e-02,-1.146731236015950325e-02,-9.798003776792265640e+00
8.083961742238830045e-04,-3.935445978142426519e-03,-9.794894597684599802e+00
4.825829809701923795e-03,3.050195542951162232e-04,-9.792984749875857986e+00
-3.069994045062906466e-03,4.611405548744319793e-03,-9.798800061706028686e+00
2.182817075428052783e-03,3.916559577218586309e-03,-9.794473303985206769e+00
4.697370268636019870e-03,-7.252016969971179783e-03,-9.796495051603757886e+00
1.746583168299189592e-03,4.388132167044905135e-03,-9.794819414122345691e+00
2.565076284123373601e-04,-2.387934679315208229e-03,-9.794750734593250741e+00
-9.439375267820361223e-03,-7.787383663985160409e-03,-9.792453258539758565e+00
-1.292377718298749517e-04,-3.757404172488804702e-04,-9.784422860072920614e+00
1.130838629457330338e-02,-8.154808592567761721e-03,-9.791180636156564532e+00
-6.680399092633022839e-03,-1.996530684857499970e-03,-9.793279118413659390e+00
-4.616324551827905194e-03,3.222009824663018933e-03,-9.797851227149864783e+00
-4.518291258418257947e-03,-2.092074297882777663e-03,-9.790654202001860540e+00
-5.115369769476526586e-03,-1.507195669041725252e-03,-9.792927644541505217e+00
9.002465115174725085e-03,-6.586800420639051662e-03,-9.803592262721236850e+00
1.104027658646298139e-03,-4.659093409548553492e-03,-9.795650481671165366e+00
1.713698200798556646e-03,2.875004477321250682e-03,-9.799923364093373834e+00
-1.018861195071622946e-03,-5.248600774082253992e-03,-9.786511401158163537e+00
-2.448996967884559009e-04,-5.621230656300480605e-03,-9.802902671105925947e+00
7.512472953046423103e-04,-2.732414132974261660e-03,-9.800171989996311339e+00
-1.801497119855609589e-03,3.327146870117364888e-03,-9.785588639419685819e+00
1.086322971809073994e-03,-3.881771382417913314e-03,-9.797503786662906222e+00
-1.369642760839627103e-03,1.975491911877487374e-03,-9.788112004560339585e+00
-7.739052031645427768e-04,-1.486712314782289053e-05,-9.789918485613066323e+00
-4.215678225344859573e-03,-1.027324333803897316e-02,-9.793982871457151518e+00
-3.556353802410154650e-04,9.971603049183401166e-06,-9.796264348097418306e+00
-7.350871269377988806e-03,3.319259026772664132e-03,-9.795532340987000097e+00
7.418686668041901168e-03,-3.179810679850345653e-03,-9.792101074700244823e+00
7.670479415934659340e-04,-3.246439289332207767e-03,-9.792708773248719467e+00
1.386375086421468743e-03,-2.753066267006391149e-03,-9.788383135870699192e+00
-8.346392091972949442e-03,1.085086396949216068e-02,-9.796692088621101746e+00
-4.583735779502231232e-03,-2.443499375018093854e-03,-9.807471535448161859e+00
-3.591897964727196278e-03,3.075180056165816196e-03,-9.795512301352360396e+00
9.895789776182255942e-03,-2.885445586087311432e-03,-9.792538787576715364e+00
-6.026216164145973761e-03,3.720441201019494999e-03,-9.795641327912496976e+00
5.846870620183053022e-03,-5.773921609770986743e-03,-9.799698118061050067e+00
1.526590597300434872e-02,-4.841113789016688977e-04,-9.797318583357011335e+00
1.165664041218717611e-02,3.415310544723751743e-03,-9.806371971216556460e+00
3.216086417504333676e-04,1.371735327231530296e-03,-9.787156628560424565e+00
1.011687100699611023e-03,-3.801583149826400290e-03,-9.796577516719652934e+00
-3.591634771258588911e-03,6.837098927772768120e-04,-9.799266843892041834e+00
-2.218241804453417645e-03,5.336775925853160830e-03,-9.794587471770610065e+00
2.914711934674899820e-04,-1.161302837579638583e-03,-9.784321281988130892e+00
2.678697582694582538e-03,-9.973518707189247059e-03,-9.801343957541421403e+00
3.848314368007428490e-04,-8.290424763640056802e-03,-9.797071720770833991e+00
-6.956299536591529879e-03,-4.648657069894622691e-04,-9.795919290056083639e+00
-1.381203963063978293e-03,-2.855336515906383137e-03,-9.795226258328355584e+00
-4.648026671166838666e-03,2.264339734322482790e-03,-9.802549694372279632e+00
9.231841270634659393e-04,-2.144178001523360053e-03,-9.797163962113732083e+00
5.517388912704252260e-03,-1.299496900428656577e-03,-9.787199396584627564e+00
-4.728965621437557568e-03,-2.053075909801118249e-03,-9.795665889521060876e+00
-3.874430608869190197e-03,-9.667585589705499083e-03,-9.780853242767792111e+00
-5.128493531657647621e-04,9.264732998985720450e-04,-9.796423276339789155e+00
-1.730765858522991191e-03,-2.869886187384191375e-03,-9.792579428239136519e+00
-2.443643112669563900e-03,4.631513529425508070e-05,-9.792509668140214174e+00
-1.728784843879662900e-03,-1.617111919295322227e-03,-9.793531730815756120e+00
-3.557192816631705437e-04,-2.361143082365536709e-03,-9.791970157423017795e+00
-1.552110397654003684e-03,-7.500968404418144157e-03,-9.791144954986140903e+00
-1.019124070935888658e-02,-3.397185243623620024e-03,-9.793055442117593046e+00
-1.552927787633064192e-03,-8.172360932039428316e-03,-9.795366370636093833e+00
4.451047693361990078e-04,8.301054383366944511e-04,-9.792774959086848696e+00
2.172689949996808867e-03,-2.276496418837757260e-03,-9.796810349614430535e+00
-6.685496332634383769e-04,6.624998875779337937e-03,-9.795609788704535248e+00
-2.902431585102285220e-03,8.359007905076301561e-04,-9.787296088838026265e+00
-1.307610132098031668e-02,7.195255433847609541e-04,-9.799467398894963210e+00
7.373117276906372176e-03,-6.360457343675099580e-03,-9.791858519044390974e+00
2.448111171164041484e-03,5.661338126798249985e-03,-9.790119794073847359e+00
-6.119972794385099800e-03,-4.889793802553734324e-03,-9.794574781755413184e+00
1.267048546493002763e-03,-5.922749386902213115e-03,-9.794524358612978432e+00
8.903669343781252937e-03,2.238709747462522617e-03,-9.798399406950370150e+00
-1.384694904534218259e-03,-8.079268144073458585e-03,-9.794493314043473120e+00
1.235380720460650152e-02,-2.413797460366164972e-03,-9.795898324331421492e+00
-2.253918857432260763e-03,3.524099635264762824e-03,-9.801478497861559447e+00
-5.194849881613272484e-03,-1.785745483793896695e-03,-9.792510834654590823e+00
-1.803771882379856756e-04,-1.770840895081724539e-03,-9.790118912841300869e+00
-9.096144241119730536e-03,-7.610262051475303637e-03,-9.796039614726954170e+00
-2.368651219842512080e-03,-9.201550185959844275e-04,-9.799885737173218203e+00
-1.734428095443030639e-04,-3.412819635739661097e-03,-9.792520727828724958e+00
6.206707321651271699e-04,3.521380008968794627e-04,-9.789142446679214515e+00
-3.218355281552286152e-04,-6.819188779633705150e-03,-9.790469861020397957e+00
-3.176357865217291354e-03,-1.138372385787891341e-03,-9.798932241229804774e+00
-3.011130365778113844e-03,-1.224232173098067054e-02,-9.805521160207231190e+00
1.066148485294087650e-02,-5.072770919978163845e-03,-9.806046119850098108e+00
1.047789051283179278e-02,8.671763372021679822e-04,-9.793191966277339233e+00
4.063477766428370656e-03,-3.708902479688385399e-03,-9.787120688258925227e+00
-3.180264012264814519e-03,2.227945740704420381e-03,-9.799303267771774628e+00
-2.348222111501182922e-03,-9.030883947744351714e-03,-9.794102657455693972e+00
-6.783518786850696244e-03,-1.713928895191867011e-03,-9.787980745351854139e+00
5.507673302547535024e-03,-1.251804378409884268e-02,-9.796094819433685430e+00
4.496206226616984144e-05,6.904388575288362105e-03,-9.784930732797304742e+00
-3.824945864582262071e-04,3.795408700109141782e-03,-9.803638595327550220e+00
-7.671342749670039853e-03,-4.647827860467767559e-03,-9.787859178665655691e+00
9.092954575672212688e-04,5.872756025839112777e-03,-9.787422526020119307e+00
7.075449619267889720e-03,-1.169846036742000061e-03,-9.787445587301219163e+00
-1.405840290403561656e-03,2.229832182160748893e-03,-9.794712451036662770e+00
-6.806388124400587943e-03,2.258436626895362828e-03,-9.795299560605100098e+00
2.927496451062061751e-03,-2.700564135712225228e-03,-9.793451361520062903e+00
-4.530270272705044614e-03,-5.232263965994585556e-03,-9.796136962169398998e+00
5.132039010248424637e-04,1.111934571689728512e-03,-9.798306230653601290e+00
-4.756922313638260562e-03,-4.151891318623500415e-03,-9.789794996208948774e+00
6.086591399411507043e-03,-9.900407913137726848e-03,-9.795304995661961556e+00
1.131423300737464770e-03,-1.189046222213208624e-02,-9.787674307088899184e+00
1.450682501857886207e-03,9.504602690272534460e-03,-9.796956713969303010e+00
1.154233184888336233e-02,5.086955953596700511e-03,-9.796660218334967141e+00
-1.090556002810930125e-02,-4.231131913150174353e-03,-9.795101175174721675e+00
8.718920911367904767e-04,1.765465838805258241e-04,-9.795087678215573135e+00
-2.296270326517321856e-03,-2.375218046236892908e-03,-9.787444964435552563e+00
7.847699123961753703e-03,-8.517913026115275094e-03,-9.796002433341717719e+00
7.222088847261809094e-03,7.304546958516588452e-03,-9.795699479019628342e+00
-8.869685117682091918e-03,-2.700722052048460178e-03,-9.789299231360940823e+00
-5.422119116494913960e-03,-3.222166701056111433e-03,-9.791456583551866544e+00
-1.599516092361996569e-03,-1.719687219089633496e-03,-9.789334273995685010e+00
3.299674111550264955e-03,-7.460847694322721331e-03,-9.794725686328062508e+00
-2.738664246099825877e-03,-5.794852723544983986e-03,-9.789952336920810794e+00
2.434824581676543667e-04,-1.472645099701559365e-03,-9.785712687496070927e+00
5.038333750905379200e-04,-9.317147829434024517e-03,-9.794182294057792504e+00
-7.352173913668770891e-03,1.002719206343413933e-03,-9.792672216094143067e+00
3.996246414320331689e-03,-2.469993807911158301e-03,-9.794658665216909199e+00
2.246689880716184508e-03,-3.088886135164907801e-03,-9.790633059251192094e+00
-6.559581195068692194e-03,-1.270879727556900726e-03,-9.794077391136470467e+00
-7.270949345155479360e-03,-2.534159799246844726e-03,-9.792028229100878889e+00
1.453505263196807999e-03,8.004041347640190873e-03,-9.799378834540931393e+00
-4.563671950750032460e-04,1.550469173186059960e-03,-9.799039770531800642e+00
-7.860423076166887096e-03,3.268092769255138107e-03,-9.792601424169596669e+00
-3.952830908852725776e-03,-3.967568244079722022e-03,-9.795339732965489432e+00
-6.996115483142589971e-03,8.205810440111227858e-03,-9.792383989885898643e+00
-4.604272556478053273e-03,-4.114184806645277380e-03,-9.786733005540193986e+00
-8.519991029930870262e-04,-5.805479181199663455e-03,-9.788493098180023111e+00
-4.638556901593367948e-03,2.344301167898850229e-03,-9.801193177888233521e+00
-1.101589742546912453e-03,2.285061085667618522e-03,-9.795167151687234508e+00
-6.203578223160245014e-03,-5.821128890609406602e-03,-9.795946034713651329e+00
-1.479684380551956691e-03,-2.371673903965527790e-03,-9.790067354445625369e+00
-5.647241965916648641e-03,-6.663661043509993762e-03,-9.792557755333625380e+00
6.448127989020339696e-04,6.817468817823318320e-04,-9.798101528745027267e+00
-2.037027941908949285e-04,-6.054630549899593824e-03,-9.794216638032684941e+00
6.625434920225659486e-04,6.987259132763990344e-04,-9.794698515925993831e+00
-2.817337143853460121e-04,7.715365782399641239e-04,-9.789977137287765530e+00
-7.170879299337538926e-03,3.503350268259143325e-03,-9.798042796180544300e+00
4.198305262777600293e-03,2.940393429513195756e-03,-9.790696400181010617e+00
-8.749221745695403380e-04,-6.687549643199027123e-03,-9.786696007157816624e+00
-3.636944366871495450e-03,2.167922819534988561e-03,-9.786728921890041732e+00
3.952337573124473438e-03,-7.471038834668935688e-03,-9.783842242161041369e+00
-5.333946435455520600e-03,5.773968434115969717e-03,-9.801881839952844899e+00
-1.168183300285033192e-02,-2.419329604756688748e-03,-9.790509365188352575e+00
4.802372800686009746e-03,-1.465884016593858863e-03,-9.791128073068268378e+00
1.796503383896922140e-03,2.379914202523133147e-05,-9.796867004823639036e+00
7.395670873918315123e-04,-1.610942750596358261e-03,-9.797498261178644086e+00
-3.685265183287096940e-03,1.098013842063656547e-03,-9.797209279889845135e+00
1.075875081735539352e-03,-1.055987511140481054e-02,-9.792467087485075439e+00
1.854206907648659093e-03,-3.417377093110750969e-03,-9.793229421295045256e+00
-3.011972551958398171e-03,3.336544201033232911e-04,-9.798209007811152560e+00
-8.455831458442274184e-03,2.599506069367580816e-03,-9.785270251218337378e+00
2.832508050061770775e-03,5.849741095385739987e-04,-9.787493278080562575e+00
8.283167885556764337e-03,-4.706515201059822094e-03,-9.792664467781474258e+00
9.535844750203609872e-04,1.005568299551526249e-03,-9.793821708400152204e+00
-6.886988415290392490e-03,-1.249316141761454670e-03,-9.793459873748689759e+00
2.946456248518464563e-03,-4.172354895243340911e-03,-9.794323872249661278e+00
-9.685363564047072722e-04,-1.299745687901623405e-02,-9.789156711739614991e+00
-5.866039930411662620e-03,-1.249370969771467421e-03,-9.788809045887575166e+00
2.268896205357733269e-03,-5.489926012469538430e-03,-9.796409169814255691e+00
-1.273276018767012735e-03,-5.743511146687646160e-03,-9.795700796068752325e+00
2.357625652807896085e-04,2.335374644059424153e-03,-9.788964311247575267e+00
-8.890483864341139700e-03,-6.511477289949433277e-03,-9.786264227153841588e+00
-9.770317657410458254e-04,-8.008939714261744877e-03,-9.790869691029879363e+00
2.032019694514504860e-03,-6.145547550449513780e-04,-9.789504360813216621e+00
-5.800906695431630022e-04,-6.037582942046998023e-04,-9.795072914380646978e+00
4.388069134843779022e-03,-3.485884166213962156e-03,-9.787118434342270135e+00
-1.752101550526795424e-03,-2.453486239051452626e-03,-9.793701508424183189e+00
-1.674390738999299031e-03,6.077168870506329326e-03,-9.793047904954127247e+00
2.609867064962014590e-03,-7.869968252481734927e-03,-9.786541812719431022e+00
-6.784401975633670224e-04,-1.431215576178079124e-02,-9.789399525684682857e+00
-1.753049647687129854e-03,-2.093980058148643079e-03,-9.792596086807746403e+00
-1.909813713180323613e-03,2.023776449334990790e-04,-9.792433960644260083e+00
3.665707120578417730e-03,3.392453296784210190e-03,-9.793912529239696241e+00
1.292313871975766127e-03,6.766803392234609429e-03,-9.788805297507121139e+00
3.130269313530779874e-04,-2.450243764377790616e-03,-9.798042534227501932e+00
-4.892293230713093410e-03,-2.073174115734871883e-03,-9.793985597796254439e+00
-4.497243386237300550e-03,-3.907602466394502483e-03,-9.793013549916944172e+00
-2.496330862804818640e-03,1.021655779669404778e-03,-9.792671567732055493e+00
-4.272277090169481796e-03,-7.817271098992426004e-03,-9.793154614523981394e+00
-6.503671326883957550e-04,6.416041276211998517e-03,-9.800085247463032445e+00
4.665564928862804897e-03,-2.221016907314808057e-03,-9.800201247757618361e+00
-3.149220485123339821e-03,-9.389376364614008749e-03,-9.789855188848180845e+00
2.359249645040577270e-03,-1.515227616444241206e-02,-9.796213434272530662e+00
-2.625536328464825146e-03,6.615203186763298458e-03,-9.801896825303106908e+00
-4.554165585040264273e-03,-5.190339656256894507e-04,-9.793992610434152368e+00
-6.635803368307565016e-03,1.805533383095925433e-03,-9.787497914061400905e+00
1.406461134203269283e-03,-9.218878628906232442e-03,-9.800791635675214053e+00
-3.077884490472957736e-03,3.182037259197132914e-03,-9.793143299925148426e+00
2.663051643843507635e-03,-1.241350994209417316e-02,-9.795835123217011997e+00
-8.753214314423583787e-04,-2.599386141438733526e-03,-9.802350280587521780e+00
3.042177769550939107e-03,-3.098684030424012689e-03,-9.799242813632568883e+00
-9.998489155063591035e-04,-1.736849464210124495e-03,-9.801039673433207255e+00
-5.950445120594538215e-03,2.976131683640031653e-03,-9.792164604712178644e+00
-1.935673020973655923e-03,2.178920616586076456e-03,-9.793364731386812849e+00
2.933290859716048316e-04,-9.148067037798466791e-03,-9.793739611364133069e+00
5.703341379741769072e-03,3.338289441657824388e-03,-9.790197603829060569e+00
5.045217526209099142e-03,-3.765332344600929096e-03,-9.791241363454320279e+00
-1.527835759618307015e-03,-2.219008003684912363e-04,-9.801224838981957177e+00
-1.367013159057153555e-03,-1.100260908609350038e-02,-9.784942009901286042e+00
3.907316225069143965e-03,-1.068665018452245874e-02,-9.793744876129482080e+00
4.981113292947515975e-04,6.295324830256212451e-03,-9.794820454017122202e+00
3.418342992213562609e-03,-3.843172850577875662e-03,-9.791147781894149915e+00
1.850728793917517500e-03,-2.293994499397100650e-03,-9.788183072424596176e+00
-2.925375692946889997e-03,3.190750086998268408e-03,-9.799320193666597234e+00
-3.879971892397074927e-03,-6.167733144409706311e-03,-9.787481838266126388e+00
3.302531349178427101e-03,9.896349262313070168e-04,-9.793529234107461789e+00
-2.352074434002871840e-03,-5.978656965500805769e-03,-9.793772325689351632e+00
-1.183214544184153826e-03,7.131247929319500106e-03,-9.785717343665204737e+00
-4.969184203763674524e-04,2.353510642840424185e-03,-9.793138792842713158e+00
5.628882476465253519e-03,7.382611103537852631e-03,-9.799685411527160994e+00
3.108558050956067905e-03,8.425098913361780094e-04,-9.793002964216091399e+00
5.355441103997727595e-04,-4.443039763080268868e-04,-9.790088233510324756e+00
-2.350376491921615362e-03,2.097038978629955138e-03,-9.789171770003861184e+00
1.870680300668960214e-03,-2.221216522962565429e-04,-9.786945688684829392e+00
7.482769229734195435e-03,-4.460506318931893414e-03,-9.785732841097624757e+00
-1.999336492876666125e-03,-2.797716101952512843e-03,-9.791966368465882198e+00
4.041086242226426574e-03,-5.999803070474133207e-03,-9.787264479340501921e+00
-3.235642816200593602e-03,-2.529795319185619389e-03,-9.792641310682043354e+00
-1.289533223132591873e-03,2.489820663803129011e-03,-9.781042417229866004e+00
8.887689786149144855e-05,-6.742958307038973524e-03,-9.794787643974919078e+00
5.833183917229078745e-03,-7.545062374475683918e-04,-9.797876750819355607e+00
-2.959007700659646448e-04,4.860114689093779881e-03,-9.793702664501216404e+00
-8.009456890015897654e-03,4.833720130376045580e-04,-9.799470106428699978e+00
-7.829639542959504830e-03,-1.109140492827462993e-02,-9.791166348661802132e+00
8.592756513482293149e-03,-5.325856237349954267e-03,-9.800072606236920336e+00
-3.657217547864971205e-03,-4.454210227425266233e-03,-9.796029506887260041e+00
-5.281601592331463743e-03,-7.229056432367103255e-03,-9.795464040952243323e+00
-1.871743697101344462e-03,-1.481503669818480745e-03,-9.795947920367053641e+00
5.377315324791420888e-03,-1.318104099246638662e-02,-9.797329262000944894e+00
-6.128204427465807486e-03,8.700409225474331140e-03,-9.796219991702601604e+00
-3.494029823091171993e-04,-1.943925108224037798e-03,-9.801248049906302384e+00
2.434713976891687576e-03,-2.659236993599320160e-03,-9.787046784247458220e+00
-6.842809544122860528e-03,2.907603117317759597e-04,-9.793061001703287971e+00
-1.170130728891477685e-03,-1.747735147182524892e-03,-9.788094560730710825e+00
-3.290383199979607983e-03,2.054860013311393587e-04,-9.799127605550127740e+00
-5.822599841304458741e-03,1.151849326526519076e-03,-9.798281377528788028e+00
6.743617411296565743e-03,-1.060497524627479352e-03,-9.801452630890299389e+00
-5.535238540835838404e-03,8.428321070971616074e-04,-9.792792752797126354e+00
1.516859839244237215e-03,3.580872710275176049e-03,-9.793635380865678641e+00
-1.660499175938786719e-03,8.552880898705142107e-03,-9.791782667554555175e+00
-1.310391956153189423e-02,-8.392060789122932594e-04,-9.791388637051262833e+00
3.501050549484482997e-03,-8.668027907228656806e-03,-9.802181909613086219e+00
-7.662332948055609926e-04,-2.802696834884532522e-03,-9.793201177216284137e+00
-8.049300790177861195e-03,-4.541196709963285158e-03,-9.786774639993934599e+00
2.901305490345287234e-03,1.191606483355204605e-03,-9.792796554599336289e+00
-2.016253183503447649e-03,6.072299793234195095e-03,-9.796375552993218605e+00
6.793757668076837869e-03,7.411413144107154537e-03,-9.800846706120603713e+00
-1.037237540958245788e-02,3.207139340130784992e-03,-9.789136800368199332e+00
9.718062133305791937e-04,-3.961097858892332485e-03,-9.795221846258868936e+00
1.100512038740484233e-03,-1.933679397773919919e-03,-9.786834644101066516e+00
9.685115841654126818e-04,-5.983041148447229909e-03,-9.794838104691756087e+00
-4.626758821377308746e-04,-5.033512151029440225e-03,-9.790983059856678494e+00
2.428912330885512217e-03,2.514715844992268697e-03,-9.791553406753141786e+00
-2.229890952178244234e-03,-6.857061054039685286e-03,-9.789833990846474876e+00
5.660427688753232392e-03,-1.469681572132987063e-03,-9.784705966978920699e+00
3.878895441868836919e-03,9.295801588369125359e-05,-9.793355638685037334e+00
-2.655889540883473246e-03,8.581963026578522113e-03,-9.793479577431719818e+00
5.679871558550476235e-03,-1.188332119546700594e-02,-9.792390549902108887e+00
4.198931506309023717e-03,-3.758607255678886663e-03,-9.790608421749928070e+00
-1.491462742588505440e-02,4.973415722085096271e-04,-9.797382549507977600e+00
-1.324060086832105475e-03,-1.869952403137003409e-03,-9.791558740088778023e+00
-1.059803382705269172e-03,-3.902251483593844900e-03,-9.799952025437939085e+00
-3.146282027116124695e-03,7.824872823417976242e-03,-9.790598591083162106e+00
-3.875594613380817927e-03,1.040287776211430357e-02,-9.797222655280798165e+00
5.300206904053346088e-03,-7.098435662386621409e-03,-9.801534825143658480e+00
-4.790258787262050184e-03,-2.314809725417144894e-03,-9.789373214610165519e+00
1.277947222351389018e-03,-4.701619636425392185e-03,-9.789868815296761895e+00
2.190452026266079440e-03,2.668835401630890482e-04,-9.799699385496298376e+00
3.554351025301250109e-03,5.405315703849597475e-03,-9.796547471974506038e+00
-4.574778331433661596e-03,1.238543065099480950e-02,-9.794513893284776174e+00
-4.790795363865654657e-04,-5.190656858265941913e-03,-9.797813851816083996e+00
-4.798083901117414056e-03,2.581632683635520960e-03,-9.801162077612637802e+00
-3.571976547944870177e-03,-2.752042913289755137e-03,-9.796425332223423155e+00
-4.770015879858868226e-04,6.219675469965565626e-03,-9.789642846008089094e+00
9.223036956337594613e-03,-5.621473978903377940e-04,-9.798659115715087964e+00
8.515686093346824586e-04,-4.369948612272912293e-03,-9.796809228858235130e+00
-1.696900358592392426e-03,-4.060690902760006986e-03,-9.799455902159859733e+00
-3.853438057816967622e-03,-5.508377978888588308e-03,-9.803652884298850623e+00
-3.887100893281997521e-03,1.464164437361100031e-03,-9.790274347738600724e+00
1.187322056265506130e-03,1.313063686617673906e-03,-9.790722742813281698e+00
6.423320723893771907e-03,-3.454690182836096801e-03,-9.798612438819095161e+00
-1.020755721199632753e-02,-5.640629480506092683e-03,-9.789488712204631682e+00
4.854249668433947666e-03,-6.344534615966028815e-03,-9.800766471226925347e+00
8.508027311622706410e-03,-8.196429944530559536e-03,-9.789484944190904869e+00
3.360591414156655164e-03,-5.870159890424104035e-03,-9.793362012381180648e+00
4.509181746021348990e-03,-7.866497315586484101e-03,-9.791709634236566373e+00
1.995740083510884159e-03,-9.088375122561030001e-03,-9.796377776184550967e+00
-5.175983419831413010e-03,4.504585750416074084e-03,-9.796107131539166346e+00
4.881567648299162468e-03,2.083170403469797143e-03,-9.798704226784673565e+00
4.726614892999247107e-03,4.977464857876362850e-03,-9.796384094020044841e+00
5.955006210078042303e-03,2.056738175665152359e-03,-9.797195433098483619e+00
6.516993029603698404e-04,5.928117189050837593e-03,-9.792920950222944398e+00
6.527349168467966138e-03,-1.912121246691184540e-03,-9.791817050304693737e+00
4.184148568833212685e-03,-5.012583180675354161e-03,-9.792296696367820630e+00
-8.637048058528004960e-03,8.775852974314329522e-05,-9.793691380667178592e+00
-4.065863684491613853e-03,2.046802057270112173e-03,-9.781641884074689486e+00
4.989204619099713890e-03,-8.440001773429819248e-03,-9.795390394366965126e+00
2.136511622574987449e-03,-6.348158144278797689e-03,-9.785694700388589240e+00
-3.204972011599231283e-05,4.343906249483287570e-04,-9.795611175734670439e+00
1.493898714274189288e-03,-9.125316438891885578e-04,-9.788866798860503593e+00
2.231977315108754200e-03,4.707756747059435587e-05,-9.797016008893280059e+00
-7.602153642774456439e-03,2.553853323035991212e-03,-9.795883473863163715e+00
4.980258525855243458e-04,-2.503913830249218739e-04,-9.786676989918898784e+00
-3.251390337260298517e-03,7.804736723070549234e-03,-9.789905533504583701e+00
4.234551562640661085e-03,7.834277964023329214e-04,-9.792710109146844033e+00
-3.106803055904277188e-04,4.213706480472838821e-03,-9.793431156894369494e+00
-9.705476937374606962e-04,1.465444907029669896e-03,-9.795869244499723294e+00
1.745104676243176616e-03,-4.927201287061084949e-03,-9.791124476172520019e+00
4.463244755869802839e-04,1.139371627005923661e-03,-9.798206082958680341e+00
2.300707685229374036e-03,-1.027843168114444530e-03,-9.792922884616690027e+00
-2.387401246267536244e-03,-1.165026780902131583e-02,-9.799459334809466071e+00
1.913611350503277618e-03,-3.380660360232717529e-04,-9.797441564623408539e+00
-1.175859128887554294e-03,-3.514570344114991557e-03,-9.791008133381801315e+00
1.312496343039038383e-03,-1.841343832020424188e-03,-9.797117475876971682e+00
-6.193791161971945111e-03,7.000934139693392594e-03,-9.791698816581606124e+00
1.184096918455662152e-03,4.621525100434472830e-03,-9.793561569099328068e+00
1.670847901122916130e-03,2.352063041266754927e-03,-9.788282667327186104e+00
6.507962717291914832e-04,3.118399090247944531e-03,-9.792482928281147636e+00
-2.213263942735759339e-04,-1.088132208382222403e-02,-9.792499191258038138e+00
8.570430323382158266e-03,2.945944912383941221e-03,-9.791716968891762463e+00
-5.374639147515598327e-03,-5.051392599383160327e-03,-9.792392186305072244e+00
8.127367683993025121e-04,2.913420578868107860e-04,-9.793674560057075595e+00
2.074237188764547872e-03,-1.078576233829970504e-02,-9.787611242737483508e+00
1.308247805036664296e-03,-1.698716008563183220e-03,-9.800599976894343257e+00
-1.945850859452668159e-03,3.103359634868999798e-03,-9.787437883245107884e+00
6.430362681927829539e-03,-5.017834230367460013e-03,-9.792743093845187374e+00
5.878895318038113507e-03,-1.953740297738039769e-03,-9.792912405730360703e+00
-6.110642523654395567e-05,-1.808295249842266361e-04,-9.798925238491102974e+00
-4.213202510034312620e-03,3.406517988386780372e-03,-9.796663520549858006e+00
2.241387693888815397e-03,3.479644868483564198e-03,-9.795200316919524752e+00
-1.745777502996798082e-03,3.775973100137948023e-03,-9.793205617267693341e+00
1.882168646019376267e-03,2.682699864808323238e-03,-9.787422982601235333e+00
3.393146564247086217e-03,8.002149481203413989e-04,-9.798469255655742671e+00
-4.874117684986505744e-03,-4.770698065037753260e-05,-9.786063099133016863e+00
3.179508283287522941e-03,-7.117873648519993171e-03,-9.791614185945755722e+00
-4.789344131749595675e-03,-1.067812294626816448e-02,-9.788093911229866606e+00
-1.465704884855671773e-03,-1.696668044055367345e-03,-9.792054166921712266e+00
2.195317446113032381e-03,-1.469240784564956317e-03,-9.796817607718310228e+00
-7.743502218853921294e-03,2.536451958266268750e-03,-9.789462412905963973e+00
-4.695304081264132547e-03,-7.829289246188723614e-03,-9.795430856944200571e+00
-2.631059417899032048e-03,7.097136370478851139e-03,-9.790365114501502930e+00
-8.588826832292822261e-03,-7.596397568387469428e-03,-9.784156390497974698e+00
-1.519200590886166883e-03,-6.949446730739379345e-03,-9.797606354088644665e+00
6.326408261885979427e-03,-9.211639138002793853e-06,-9.792714399511860179e+00
4.818805271542887791e-03,4.072551462045029616e-03,-9.797677273557473754e+00
9.310275794240481994e-04,-3.175383314583698005e-03,-9.794740454607110181e+00
4.258103492035163543e-03,8.370610892274202124e-04,-9.796184339951354403e+00
-1.402571832291023019e-03,-3.301859795616899490e-03,-9.794333850497615401e+00
2.686990920743532248e-06,-3.996788825919177050e-03,-9.795001359199421387e+00
-1.051585053320222649e-04,-3.993350291507811491e-03,-9.796094052863061563e+00
2.443395603790010293e-03,5.740222174174989221e-04,-9.796901784099562249e+00
3.016882598100431513e-04,-5.336359338801463601e-04,-9.794169281626421864e+00
-3.830220801861582299e-04,-6.425007320007059854e-03,-9.791001517916447128e+00
9.857882809844417324e-03,2.290207205472964865e-03,-9.802655202615426333e+00
-1.021586442424290454e-03,-4.534758590952017200e-04,-9.806283491422840726e+00
-1.981358558774526770e-04,5.842286484262980764e-03,-9.787004333516549082e+00
-3.802733346405377021e-03,5.374129998303474667e-03,-9.796793878711641312e+00
-5.217012670946811169e-03,-4.256744168994576819e-03,-9.787142892214298229e+00
8.757298619749623314e-03,-3.184574508085864959e-03,-9.787874451737428316e+00
-3.084253292875880573e-03,-1.069932197588682743e-02,-9.793553287117477524e+00
-3.271925100136270116e-03,-2.379108802531797965e-03,-9.804067976339842616e+00
-3.220524200793739925e-03,-3.868939150065297053e-03,-9.796524086201905845e+00
7.457864836934715788e-03,-5.393809495109534811e-04,-9.805301806214563598e+00
-3.957971911425096218e-03,-2.313273415117749442e-04,-9.789140141973476261e+00
-3.355270334401068942e-03,-8.401722881602726942e-03,-9.793511692767765453e+00
-1.560691806141495039e-03,-2.549026639792363862e-03,-9.792546115273385254e+00
4.646969400841973255e-03,-4.426468925068471720e-04,-9.790236691480270537e+00
1.203813978179549445e-02,-1.118712203420870951e-02,-9.801898089561966287e+00
-5.212852378756045025e-05,-4.918709152297836076e-03,-9.802434262386528374e+00
3.265015247173810517e-03,8.570201639439534690e-04,-9.798175070341740067e+00
2.516160693121494586e-03,-9.506913485811113859e-04,-9.798810518628686239e+00
-1.279377644371439658e-02,9.029347464086685815e-03,-9.794284660729465131e+00
1.332424300062934591e-03,7.412998271968796078e-03,-9.795924236093098258e+00
4.680382985816106123e-03,1.158544625976839354e-02,-9.791793726787728858e+00
5.451672430132780377e-03,4.645952315708166275e-03,-9.788378333258359376e+00
2.542906450931885741e-03,-1.887883975080755861e-03,-9.789338445468366956e+00
-3.307132722918798996e-03,-1.833740215226875320e-03,-9.796077559655799405e+00
-6.013592884174378574e-03,4.389369213096291217e-03,-9.795842691825315640e+00
1.582595041427994724e-03,1.192808672200961189e-04,-9.798793988023405177e+00
-3.489794298633355947e-03,4.094995914990316732e-03,-9.797270120430569662e+00
4.627697656457940151e-03,6.326483229179692518e-03,-9.785429289794633334e+00
2.578810719210283299e-03,1.404619264856799433e-03,-9.799783069720801265e+00
3.548228526599675383e-03,-7.523136279207338385e-03,-9.798359952960627339e+00
1.503189274359682153e-03,-2.338974948710248122e-03,-9.793634096610544404e+00
5.622359881107045348e-03,-1.113179061930981775e-03,-9.792290448574293649e+00
3.237550658565007062e-04,-2.568296202013655230e-03,-9.793023192100507757e+00
-6.921263716285398597e-03,-1.050835981897207255e-02,-9.793842043503538264e+00
-2.512346930784172764e-03,9.477333789273494763e-03,-9.796262017789164389e+00
-5.292701408696853620e-04,-2.750097097120164299e-03,-9.802441563871408192e+00
-7.666211131341965548e-04,1.199367300625947758e-03,-9.791016841755389777e+00
1.858223402177043180e-03,6.462810870643564444e-03,-9.791311700551389663e+00
-1.584452641122221150e-03,-7.145108237199642581e-03,-9.791562081957868813e+00
-3.388606038749829037e-03,6.820575766793800492e-04,-9.798547602851799709e+00
-1.480674856321453816e-03,-6.747563741639255042e-03,-9.794767282217007320e+00
1.440936214165853537e-03,-2.972112591325809777e-04,-9.792686805342238898e+00
-2.288513117000634707e-03,2.639476068955423377e-03,-9.801361758449148809e+00
-2.173634764655378322e-03,-5.566666786998623884e-03,-9.795403917526776638e+00
1.750116381381098488e-03,-1.079615541830085228e-02,-9.796872742138337031e+00
-1.174994250694043818e-03,7.739907145507683023e-03,-9.796818560229388240e+00
-6.628597306462886279e-03,2.186483429828460501e-03,-9.787763803975822796e+00
1.401039646634278171e-02,-9.323935195162922924e-04,-9.798877523258001432e+00
6.708857193270812043e-03,-1.061459796375372388e-03,-9.795089363714183150e+00
3.113202763984480089e-03,3.892318714795259087e-03,-9.792901158182463206e+00
-2.166859871215270049e-04,-9.217726729339777028e-04,-9.798960781512160878e+00
-5.966667985652557987e-03,4.343703087179537001e-03,-9.786246007276009351e+00
3.097808442420164378e-03,4.779613930424953059e-04,-9.801428344452700614e+00
-9.841019430509622204e-03,-1.002325959299860993e-02,-9.793788127540521415e+00
-1.841558409176591565e-04,-4.398516784481032102e-03,-9.798008836546939548e+00
8.734558888215598199e-03,-6.548202831770645778e-03,-9.785983943988140865e+00
1.822423909607934428e-03,-5.733674171659880123e-03,-9.807757502500168201e+00
-1.630320350585025085e-04,-4.449239317061426391e-03,-9.782367526827629334e+00
-4.103537789270593310e-03,-1.453573077186553911e-03,-9.796209670418678073e+00
-3.164276011367239769e-03,2.240875937467419476e-03,-9.801407338613355336e+00
5.498530070110119704e-03,-2.726041106707201463e-03,-9.790028127081942699e+00
-4.172659041283136201e-03,-2.000236486684821638e-03,-9.802096119909784022e+00
8.664157911854946173e-03,-5.985569895520506320e-03,-9.789768523552904611e+00
-3.180881071245220213e-03,8.343475596688585197e-03,-9.800013014148992951e+00
-1.010951699809301604e-03,-3.701641607902364170e-03,-9.800028177790400363e+00
-6.398126031246817273e-04,-4.009414126536817689e-05,-9.796923316673698423e+00
-6.505911960127233433e-03,-3.566797420515804493e-03,-9.790612345208320022e+00
7.062729951741223387e-03,1.926104774502001692e-03,-9.789234926075032206e+00
4.614406095646636161e-03,9.408372910533198234e-04,-9.790734134308781478e+00
7.980181136958146466e-04,-5.713581339757941094e-03,-9.798319346638207250e+00
-7.593993363207228453e-03,3.451410881670447829e-03,-9.796314125413978502e+00
3.706843030890761659e-04,-3.659661132202653589e-03,-9.791780764498435374e+00
2.109997652481005598e-03,-9.306099084458469700e-03,-9.793120084181433427e+00
-7.566469972074045536e-03,-9.209084023910744238e-03,-9.793382161183096457e+00
2.069433988370777879e-03,-3.011213172213718543e-03,-9.788598986338653773e+00
4.976690674848590831e-03,3.838084759240779908e-03,-9.793365926547146216e+00
-6.016696604340529206e-03,5.239503117813125964e-04,-9.794189946520001300e+00
8.904916144652627250e-03,-5.486885394357164485e-03,-9.802033875213336245e+00
2.903593612697971671e-03,-5.594651120436463718e-03,-9.800857482521657005e+00
-2.030202919191723653e-03,5.166671820103106369e-03,-9.792368811434718268e+00
8.815702634008194816e-03,-2.696736560366807135e-03,-9.792513659394790793e+00
-2.378705447932815461e-03,-8.957755135391366925e-05,-9.787467401998833694e+00
1.141817961018865447e-03,-1.354691106633451950e-03,-9.791518793606151405e+00
5.305336122298646810e-03,-6.392596783624881519e-03,-9.797888573039006843e+00
-9.105389468977886230e-03,-8.608338491716327479e-03,-9.785041602967657681e+00
1.025194670230902350e-03,-1.532583735285545246e-04,-9.800477303329961032e+00
-9.408392497643898109e-03,-6.853579317253421068e-04,-9.802491398979086057e+00
6.176504314751421519e-04,-6.020285814281404677e-03,-9.792062729276592492e+00
6.359953312482725246e-03,3.660674262318816888e-04,-9.796809883516955253e+00
-6.702569326859373136e-04,2.886941375789900139e-04,-9.798192609026648014e+00
-1.836557837320747623e-03,-5.006194002357843356e-03,-9.795179423392958995e+00
-5.907522374580139596e-03,1.793376989539070213e-03,-9.791845776169742166e+00
-1.731359079710762536e-03,-7.736507527451073375e-03,-9.797448797113881724e+00
-8.687013428758754569e-03,-1.287564130936906005e-04,-9.793930460044714792e+00
-6.378082157601981141e-03,6.023697069141610572e-03,-9.790346387811649009e+00
-4.555767495635317139e-03,1.261547610457500537e-02,-9.795842514958705394e+00
-1.238571080677834581e-03,-1.658655679245854640e-03,-9.790527094315937262e+00
7.081102460400561134e-03,4.994757641313042444e-03,-9.797611521064615303e+00
9.673724328544670500e-03,1.528074273890820973e-03,-9.793718357301711919e+00
4.048608150441906743e-03,-6.270103833915062833e-03,-9.785001141477728481e+00
-2.616301925843741213e-03,-1.116756348449343857e-02,-9.790067744112310066e+00
2.613124485869634112e-03,-6.966544854673344112e-03,-9.787016524118003602e+00
-1.338615440144799978e-03,1.473229081714534389e-03,-9.794013155601072995e+00
1.085633888741977925e-03,-7.059954508446434490e-03,-9.794620541597483410e+00
2.882346940210052215e-03,3.553073491271936234e-03,-9.796099906711072336e+00
6.634117158280409751e-04,-1.554314158191694552e-03,-9.787371187170954556e+00
-1.035176022779115898e-02,-1.235204288487689846e-03,-9.792979632595487871e+00
3.535055669686995583e-03,1.097079612259110361e-02,-9.802089355453409425e+00
5.054531090507944149e-03,-4.287496732206899294e-03,-9.784655639177577413e+00
5.307944874436505180e-03,-2.080647606416057265e-03,-9.794474354280545469e+00
-3.566083230908807973e-03,7.975073795662699846e-03,-9.805674031727876994e+00
7.586301439023981387e-03,1.719926331405716114e-03,-9.780362097046337411e+00
1.043496273072672424e-03,-3.446395516439190558e-03,-9.789659719004378147e+00
-2.104310860809924938e-03,-6.644211142068555398e-03,-9.795950357311530965e+00
-2.162100084806142710e-03,1.992867822686285144e-03,-9.787816150716613706e+00
9.190626543521604594e-04,1.729024439128117778e-03,-9.798633294784982795e+00
6.766668483015400234e-03,-1.725607278071814802e-04,-9.789482005735573367e+00
-1.028798929862790321e-03,-4.725887081685056085e-03,-9.797086158606074235e+00
-6.442125009354904806e-03,-1.205244472565037295e-03,-9.798325932148937767e+00
-1.179626732060346395e-03,-6.959323443314249791e-03,-9.796409831665380707e+00
-4.739334388988520642e-03,-1.146888140484946146e-02,-9.790283458728806565e+00
9.426734081428595619e-03,4.798701549228242581e-03,-9.797451284342795219e+00
-7.859391581196465380e-04,-2.841109321360542860e-03,-9.787399715829844027e+00
-1.031895324911729327e-02,-7.135446044065070319e-05,-9.786034089285424287e+00
8.973150135007174760e-03,7.932623589970966803e-04,-9.802178858740074219e+00
7.892834729460958048e-04,8.382429920602379320e-03,-9.785650880315222011e+00
3.187709916229343314e-04,-3.320214737527874861e-04,-9.797124599026505010e+00
-8.714178439539069579e-03,-5.635988915259862453e-03,-9.788408079230588754e+00
4.105918468949600574e-03,-1.731751609753921090e-04,-9.790652307523135534e+00
-9.289618672426402241e-03,8.381876669385399884e-04,-9.792203591169100108e+00
-5.492347132980191816e-03,3.633413419932674405e-03,-9.789192888453539965e+00
2.921632158169155252e-03,2.237853969621664794e-04,-9.793821322189087297e+00
-2.029936717723092744e-03,5.847274585774865641e-03,-9.799055715472974271e+00
-1.841913719412716609e-03,-5.479478089902222251e-03,-9.794729609052883035e+00
4.774962228409239222e-03,-1.022266980768330412e-02,-9.797764484448904909e+00
-4.604630257998475196e-03,-1.397278940585841480e-03,-9.788352174227325619e+00
1.649809865637254279e-03,2.041840074763444195e-03,-9.789969373831146626e+00
-4.457510847169331679e-03,-5.078705611755440774e-03,-9.786271839234816028e+00
4.449462471520117604e-03,1.020346025330931897e-03,-9.796794409695603889e+00
-2.491807761743622569e-03,-8.114174442589256950e-03,-9.793956370335227035e+00
-1.250886944128192391e-03,2.683845617895484585e-03,-9.791061219914308111e+00
9.968129732499683791e-04,-3.463789741908319605e-03,-9.786991892684721250e+00
3.432231271829285207e-03,-2.117282059676837101e-03,-9.794734534438672924e+00
-2.427397584266753443e-03,3.095201418344067402e-03,-9.793555338339151817e+00
5.981290769336341379e-04,-5.986102119115690491e-03,-9.787458546851354413e+00
2.209676100441683010e-03,-1.140767699983716646e-02,-9.778390489155821541e+00
1.754364310363409679e-03,-5.580463536328674964e-03,-9.797452565781853195e+00
5.345897282781365660e-03,-1.636613964486009591e-03,-9.788965889865558268e+00
2.767817532266590285e-03,4.062894260951776734e-03,-9.788649078145594373e+00
-2.881251059036421189e-03,2.310935920829260137e-03,-9.797223609833908498e+00
9.310737623704448684e-03,-8.074895240619106140e-04,-9.789819735663332523e+00
-5.864498899151011566e-03,3.937555056850125003e-03,-9.786729459905251005e+00
3.432656657553751108e-03,3.215008546249752130e-03,-9.797580995168109652e+00
-4.939230033709899638e-03,-2.013137884744317652e-03,-9.793634839796904856e+00
2.150174757071234618e-03,1.861535715402226057e-03,-9.797854107189863271e+00
4.046761138889390721e-03,5.215449896990367006e-03,-9.786707907416651864e+00
-4.006677460115901264e-03,-5.231221526637861233e-03,-9.794492612524118513e+00
9.571106379266315634e-03,-1.170367737436659762e-02,-9.789400936099742268e+00
2.066124722416231782e-03,4.782259028931685682e-03,-9.795082917810644219e+00
1.630389062446577740e-03,-9.039469010900656742e-03,-9.793626995597453089e+00
7.300808032041052748e-03,-1.586577606197239797e-03,-9.783097382849359036e+00
5.249688110425941578e-03,3.509965080669117526e-03,-9.802055282052076990e+00
-5.730030855646325166e-03,-1.795300525451499693e-03,-9.798436803206950430e+00
6.334579139624554878e-03,-9.629520506987414644e-03,-9.793001821867239443e+00
-4.341326134060846144e-03,-8.524988066896768343e-03,-9.809633974737451467e+00
-2.467128000005112086e-03,1.914224179484652144e-03,-9.796083489710889936e+00
-2.409450804727650882e-03,-1.067286575915014392e-02,-9.791995734047844735e+00
6.343427179530468189e-03,-6.002016127382236261e-04,-9.800071301846235983e+00
-2.256005201372540767e-03,-4.844510993489710426e-03,-9.790348426084561240e+00
1.579716735884468919e-03,-9.788184336453151918e-04,-9.797269879060669595e+00
5.548158896726351026e-04,-7.850332948785112772e-03,-9.797972805095016113e+00
-2.815855227134068852e-03,1.864275166422753489e-03,-9.785810584255884237e+00
-8.328535175915590880e-03,-9.427765245728778748e-03,-9.801125189412484673e+00
-1.398624433293924399e-03,3.772475076619001035e-03,-9.793687597850015081e+00
3.271693473522220130e-03,-8.720268224508268733e-04,-9.789085208093830204e+00
-1.000761136137007668e-03,-7.958725571974925583e-03,-9.791519757129934831e+00
-1.697619715077989698e-03,-4.125161842431178220e-03,-9.799875776310759790e+00
-3.742528095309487473e-03,2.724393500254907678e-03,-9.795739214202466627e+00
-3.644745235829133473e-04,5.107657465071159357e-04,-9.784663809969721626e+00
-6.798939567138749529e-03,3.158632411470211829e-03,-9.787990227718603720e+00
5.003925604747595096e-03,-5.995019407293676952e-03,-9.786961418152250403e+00
1.341755692114108243e-03,-9.238813684881884078e-05,-9.794480904254633913e+00
-3.263581249168567063e-04,3.299370833696587280e-03,-9.789473943909712261e+00
-1.515269204539753268e-03,3.851393621384993637e-03,-9.791742099530726051e+00
-9.782867323633950580e-04,-1.359409759652538798e-03,-9.795613696750653077e+00
6.331596693480671424e-03,-7.434822224594700261e-03,-9.793843590002007105e+00
-1.145092901917629021e-03,-8.994998815323805141e-04,-9.787094407096814663e+00
-3.196141757061721472e-03,4.593136911822535279e-03,-9.791205871921913939e+00
-6.109761165104465701e-03,-1.072647713196808218e-02,-9.797599604096872028e+00
1.454983229229903910e-03,-4.444626589696497494e-03,-9.801492184141350705e+00
-7.488491306195624309e-03,-8.898615936918964631e-03,-9.795137077585605923e+00
-6.800233275198890731e-03,-2.343912460650165661e-03,-9.803129129224711136e+00
2.666391863462814430e-03,-1.360121834466658693e-04,-9.798038053622489585e+00
9.789971459830936959e-03,-1.283114750816835917e-02,-9.788479194753900714e+00
-6.105252111043351845e-04,-3.567757427620306745e-03,-9.789347845592175190e+00
2.840856904795987375e-03,-2.739959919859214117e-03,-9.794533137443401927e+00
-6.840591477622949036e-03,1.544875741560782206e-03,-9.783638805734202748e+00
5.404406257863702233e-03,-1.328924609572644869e-02,-9.790697612260508720e+00
-1.144065463809511513e-03,1.437235231476832742e-04,-9.799495300438435308e+00
-3.371765129571006089e-05,-1.114167360425118245e-03,-9.780292951476303287e+00
-1.862235947312719650e-03,1.861202057386692355e-03,-9.798738362396685275e+00
-4.256064806655866827e-05,-6.570782142746678899e-03,-9.794244313669778990e+00
-5.802251867010369338e-03,-8.994924797388920146e-03,-9.793546959656382001e+00
8.619248691676937441e-03,1.193498301330437683e-03,-9.791528864175473856e+00
1.213788432283435977e-03,-4.290333703573102030e-03,-9.787940900865809368e+00
-5.682044586071845595e-04,1.765075984287989936e-03,-9.787545815481902167e+00
8.740540074394964783e-04,-3.028403404841910253e-03,-9.793261471819185715e+00
3.215317944015457473e-03,-7.472552944992730262e-03,-9.796915398241731410e+00
1.366623732913600005e-03,-2.472548032588263445e-04,-9.790587028329158059e+00
3.038541612582512999e-03,-4.845201391968192214e-04,-9.790009767120414708e+00
3.458271961347471855e-03,-9.961766535838991604e-03,-9.792244640049091231e+00
-2.809502017203258963e-03,2.709326071301401163e-03,-9.797094195612414680e+00
-1.636878511139531556e-03,-2.267924560012256775e-04,-9.800897790596225789e+00
7.521772038300941115e-05,-1.472325529904403366e-02,-9.793530850074052552e+00
-1.589333689181092251e-03,9.849656491619385862e-04,-9.791927327402317971e+00
-1.025608406188443459e-03,-7.888994502575271198e-03,-9.795992982091473067e+00
1.842876363151626628e-03,7.295953047656445617e-03,-9.793951193805730426e+00
4.860345627964720444e-03,-1.844026840260147397e-03,-9.784931873761188115e+00
5.291580668640177669e-03,5.681692815104508534e-03,-9.787899509619190752e+00
-3.512069020033742935e-03,-4.334138475709082769e-03,-9.784049668382426290e+00
-7.723349390857683905e-03,-6.414463606441217144e-03,-9.803612966602702983e+00
8.885876951523520584e-03,2.408147973805656577e-04,-9.796663156478100376e+00
-1.791943965968899538e-03,-5.383604306400479158e-04,-9.794717452402137425e+00
2.374689114094903018e-05,7.321498562530892595e-03,-9.802320870434531486e+00
-2.019076421146224955e-03,-1.975177426651856041e-03,-9.787163807398359339e+00
6.427699758616177948e-03,-1.517222584591065805e-03,-9.789475867966279665e+00
-2.261390284950333569e-03,5.592634490700146288e-04,-9.795511014149465012e+00
2.775070377400872305e-04,-1.843796779696958233e-03,-9.792091213237322123e+00
6.789510280759736868e-05,-2.678014545643901852e-03,-9.784515366804802383e+00
-3.532664355674060980e-03,-4.340235672868829678e-03,-9.790527526465497843e+00
3.367829866555558781e-03,1.361102729942993521e-03,-9.790180712057091839e+00
3.927805265135284854e-04,-8.327330489027368055e-03,-9.793619105900301491e+00
-7.093047021721904551e-03,-1.090081236009286456e-02,-9.785661507092560996e+00
4.531960818957883955e-03,2.544126224697307054e-03,-9.797512322392943673e+00
5.230543053290664240e-03,-1.745192850192258185e-03,-9.791509566952354859e+00
-6.405789617960892801e-03,-1.890375637419240131e-03,-9.801502167760599349e+00
9.280533851668894578e-04,-2.799432472646821990e-03,-9.799956385120227154e+00
-6.983612455921417959e-03,4.106871788638317630e-03,-9.796677819729405101e+00
-3.731085441881808792e-04,-8.335853188040882400e-04,-9.791990872244747734e+00
-3.237839975235573889e-03,-4.588985744111522685e-03,-9.790026482770732841e+00
-6.693898327225855183e-05,-1.253548889974460175e-03,-9.794238610687074242e+00
-3.533874712982935061e-04,-3.612008946412287400e-03,-9.787257949801213996e+00
-4.598841346148028857e-03,-2.077588648000058130e-03,-9.788357133056022619e+00
5.548379086613980729e-03,-6.248895367951751503e-03,-9.805498719671575714e+00
4.462881897833070183e-03,2.505962897155729948e-04,-9.790840441895980462e+00
-1.160425221319535266e-03,-9.362165411019503789e-04,-9.786554857336202673e+00
-5.353227186737381099e-04,-6.440060352484011652e-03,-9.794338268989850604e+00
-6.958858654052208284e-03,2.252016895550015135e-03,-9.797884548528513093e+00
3.946236747822416506e-03,-1.037291453489382932e-02,-9.793850341468576914e+00
-2.465604287735313586e-03,-1.534557433700144569e-03,-9.803080450516535649e+00
-4.689927093569596500e-03,-9.777140914197240615e-03,-9.799007338679455614e+00
4.382485381922330767e-03,-6.713552988211147696e-03,-9.789194266529225530e+00
9.900845170425012776e-04,-4.281935837078101013e-03,-9.789539700117245502e+00
-4.958900754931600333e-03,-3.274899529415059053e-03,-9.793541573764107611e+00
5.151681371194978369e-03,-5.380426288128934559e-03,-9.801261588828033666e+00
-2.199158253782827754e-03,-3.107509563800910091e-03,-9.794993198967919312e+00
5.348427208081300670e-03,-5.714814272537348944e-03,-9.791651722490097853e+00
3.266506786716076257e-04,2.913278484877614670e-03,-9.794622935676231990e+00
2.837921446817856779e-03,9.005924155094397615e-03,-9.797525117866241473e+00
-7.291389682248957532e-03,9.323761011424630627e-04,-9.794426736583393023e+00
-5.494817011192908510e-03,2.830773166941396007e-03,-9.794007166384224305e+00
4.748011689639180730e-03,3.061388055258437105e-03,-9.804301048668992991e+00
3.005162678065752876e-03,-8.183052257245752165e-03,-9.791933760624109695e+00
1.926666536351657696e-04,5.744379246810348179e-03,-9.800871894666963513e+00
-6.109887742155838131e-04,2.046307572125746332e-03,-9.796455184478942257e+00
2.902922312513766222e-03,-8.841024035111824317e-03,-9.796050728933524354e+00
1.787482120792885203e-03,-2.846465508918699996e-03,-9.797872663131141024e+00
9.927226263882886828e-03,-4.056898936791475743e-03,-9.791710593726426382e+00
1.158232654686989875e-03,-8.690968989706976400e-03,-9.796331691000387920e+00
-1.193443810090794987e-03,2.386873550314712496e-03,-9.794138547614725354e+00
1.448128579822250891e-03,-1.624318870699081874e-03,-9.805543766617404344e+00
-1.534951878696390500e-03,-1.009858712307388703e-02,-9.799865483707032254e+00
-6.869364355650540467e-03,3.087371307339431895e-03,-9.799747663635637096e+00
1.170336266273997242e-02,-3.163791529101846536e-03,-9.795538463839042365e+00
5.723263298539264625e-03,-4.072950843935794173e-03,-9.788415131006381387e+00
2.506647389066221383e-03,-3.009784533480643499e-03,-9.796002520584186968e+00
6.065850737111379764e-04,3.118903110624186154e-03,-9.788852958025220374e+00
2.836913502215161753e-03,7.349430620412140611e-03,-9.796237202641652431e+00
-1.209691848464685597e-03,6.913087700624319897e-03,-9.789526919619200740e+00
-1.556869168841582864e-03,-4.893081018783109262e-03,-9.795581395713099937e+00
2.583387753015121534e-03,-1.730084272883673346e-03,-9.796479068007839075e+00
-4.315438011686255695e-03,-5.697505436090201554e-03,-9.802251113922723746e+00
-2.812781710187967337e-03,2.873088492874686581e-03,-9.797353005952256666e+00
6.333199560422150820e-03,2.147879768989501090e-03,-9.796778012786024448e+00
6.977432155812126648e-03,-3.252458382933934300e-03,-9.787752277076760876e+00
-6.184481460545470169e-03,9.699140105804875470e-04,-9.789010509265569482e+00
-3.257182237924869002e-03,-7.563415720547712190e-03,-9.803635518616561129e+00
-1.540004964626365529e-03,7.935292239495505065e-03,-9.793420605640822174e+00
-1.367337634054436495e-03,8.713753555455092809e-03,-9.789393865443841491e+00
3.873746747861026973e-03,4.514699583738413565e-04,-9.792907606969098566e+00
-9.400334409414957222e-04,2.826216612675684810e-03,-9.798331747714950524e+00
2.619767606911322690e-03,2.289422469030056272e-04,-9.790711095474559755e+00
2.067785745925842297e-03,-7.710120287495705188e-03,-9.796532958767659949e+00
-1.586382512826232114e-03,6.112522741499238320e-03,-9.797879976640276212e+00
-6.667395120687069285e-03,6.031402005421840871e-03,-9.789747844369999896e+00
4.565506123008134486e-03,4.483619353388740465e-04,-9.794146921722093779e+00
6.220621483369811154e-03,-6.922144815820048752e-04,-9.796797541642225937e+00
-4.539494015770997176e-03,-5.238671837622429182e-03,-9.790913972763867434e+00
4.945210972447312142e-03,2.105935207664572355e-03,-9.793910430103281328e+00
7.379191050145529444e-03,-3.553811342982542143e-03,-9.791425367120446310e+00
4.586407523612581923e-03,-4.710012569600179055e-03,-9.784680863232800618e+00
1.269262521698606531e-02,8.713013800596591113e-03,-9.786549072911977731e+00
-2.809561252437443694e-03,1.794972498868985765e-03,-9.796883514542647831e+00
-5.727590406160374716e-03,6.368249728031233695e-03,-9.796544401640412403e+00
4.348280272102363585e-03,-1.403718019278020132e-02,-9.795761973549137025e+00
-5.583709706210914468e-03,7.815210898335985413e-04,-9.795735858713864985e+00
6.845220241229857221e-03,-2.162958771583847577e-03,-9.797953501515713981e+00
1.885534860005846393e-03,6.667207084610236867e-03,-9.784897210944324186e+00
1.108409983955227713e-03,1.447299697406973298e-03,-9.792330050150159337e+00
-1.284639883934171481e-03,-6.505139061560601512e-04,-9.793800726412623447e+00
-2.796242295507091885e-03,3.709102822070923199e-03,-9.796858005388120461e+00
-1.093335713497268612e-03,-3.948771190053953703e-03,-9.794658637339024310e+00
2.355587401821095843e-04,7.734931806235629918e-03,-9.793817086734277311e+00
-5.186822882274293341e-03,-2.133682514830398391e-03,-9.790643284058955231e+00
3.126789767571485962e-05,-8.821034184997955489e-04,-9.802676947898474324e+00
7.542235380027000752e-03,-7.138596288944398446e-04,-9.796168516648176450e+00
2.987342930430206440e-03,-3.648688958674490244e-03,-9.799545415817311422e+00
-4.369516939225170232e-03,-8.694475830304179698e-04,-9.788750162766119089e+00
9.824627864619702930e-03,4.844919130725269633e-03,-9.790783279065394140e+00
-3.751378754664994215e-03,-1.197690358755706518e-03,-9.784737169281912728e+00
-1.902841171109601916e-03,-3.611492875776720676e-03,-9.795623353212867812e+00
-2.505161219716802042e-04,-1.567505459538652210e-05,-9.796753059591040369e+00
-6.104052090377754328e-03,-1.610302600144464811e-03,-9.797556992571923473e+00
1.907781253339007211e-03,-8.053186947232731860e-03,-9.797875805749448830e+00
5.263160751399429538e-05,-2.541772910375598993e-04,-9.793309267167035870e+00
5.457258309302937850e-03,-3.113073653108364754e-03,-9.793524997173305380e+00
-1.768985535535883696e-04,-3.799622593976376226e-03,-9.793685293719867957e+00
6.838064160192794394e-03,1.468604143936887889e-03,-9.795428347170352268e+00
-4.959959722354810412e-03,-2.999342182809399456e-03,-9.797363685257097998e+00
-3.487478773010095623e-03,-6.383431074859222294e-03,-9.790384563473045532e+00
-2.360693429056637954e-03,-3.165712086688801316e-03,-9.793793417930579892e+00
5.880695580079232931e-03,-4.642628198153156416e-03,-9.798710725636874841e+00
-9.927427858223434112e-03,-3.676275954859112467e-03,-9.797832136724053953e+00
-1.127945896734603663e-03,-3.819141239686510078e-04,-9.798432120966449332e+00
3.544573833915563746e-04,1.882405630386020700e-03,-9.788981957099311515e+00
-2.756670614872723177e-03,-2.203200193304481573e-03,-9.791032967992158831e+00
2.685383483386157445e-03,-2.569752885238796563e-03,-9.791078795099867449e+00
-3.912624913274853275e-03,7.061670573044076527e-03,-9.788537195224165544e+00
5.387641331322052564e-03,6.843922248326267214e-04,-9.796714404157418343e+00
6.610685962793298037e-03,4.026142046907424908e-03,-9.790409759477489260e+00
-3.763996502332714409e-03,3.621154994236757286e-03,-9.795172725857700158e+00
-2.004705498466489728e-03,-3.683185019361939413e-03,-9.804938248482171659e+00
9.988362279874634514e-04,-2.919875719033300076e-03,-9.798792883172014356e+00
7.666110189278812527e-03,2.127487896143646223e-03,-9.791840205371185490e+00
-6.082288708138594568e-03,2.111777311421272028e-03,-9.797709457078205730e+00
-3.821246252764144181e-03,2.886703005350518651e-03,-9.793532712289582776e+00
-1.253817306457692075e-03,4.641309923879439678e-03,-9.794396909025413933e+00
-7.065163709086985265e-04,-2.563278391942387831e-03,-9.789658134662154509e+00
-9.202202257988660638e-04,-3.521792892903326082e-03,-9.793660194663432961e+00
-3.245588097407624273e-03,-2.408293604230174294e-03,-9.790219710427768618e+00
6.774588390032647896e-04,-4.596750508223726266e-03,-9.795915768862275996e+00
3.733078800914530794e-03,-1.151474154482930775e-04,-9.796717563233842796e+00
3.226972237881256620e-03,-8.306686562860784648e-03,-9.783575978580838495e+00
-4.172623499138299573e-03,4.778168881777707447e-03,-9.791083574003955903e+00
5.015926303668496143e-03,-2.136803626759238312e-03,-9.800179735615234478e+00
2.821571931635062213e-03,-2.730275221922982484e-03,-9.788851562455482380e+00
5.525588323635364715e-03,-5.465653023790774043e-03,-9.793335253851608968e+00
-1.147465605880005420e-04,-9.996815340571488587e-03,-9.795309820081129715e+00
8.370933498838199587e-04,2.102622449062976212e-03,-9.783762429149309270e+00
6.112780492542164990e-03,3.930207859418458072e-03,-9.795929580929616520e+00
2.455638256638225433e-03,7.229387389579185197e-04,-9.791196847404705750e+00
-3.933656908822706112e-03,2.290838313368496852e-03,-9.794555363136360882e+00
-3.897094089406794720e-03,-1.282610159329835610e-02,-9.800497742484612473e+00
3.722547343791339242e-04,7.117963717694502507e-03,-9.791621268940691181e+00
7.051536840320163022e-03,-3.424599142607313504e-03,-9.795580847828745163e+00
-6.131695683250140867e-03,8.887029078254631356e-03,-9.796083879449101417e+00
-2.623513380759921916e-03,7.512484484346229618e-03,-9.784658239989834527e+00
5.038170476279930227e-03,-1.460170788001467898e-03,-9.792388711989820749e+00
1.693116483180939075e-02,-8.486014430213472976e-04,-9.796279702482772578e+00
2.606169763134128566e-03,9.450019033616580480e-04,-9.792681587171450985e+00
-4.018412641624964057e-04,-1.714300644567079814e-03,-9.801916974786198722e+00
-8.404442771262682008e-04,-8.660823863637609130e-03,-9.795088432619571961e+00
2.537141508300268765e-03,9.081185739832664180e-03,-9.785973206774746913e+00
-7.102105833991665708e-03,3.535255714462608168e-03,-9.793751468374843228e+00
2.617180716424645937e-03,-1.586440015290884169e-03,-9.794694503638599059e+00
1.961436961300690087e-03,-4.120838971700636552e-03,-9.797193358953260045e+00
1.047017066430215235e-02,3.168860818837448273e-03,-9.790265542917666153e+00
7.578068649013633071e-03,2.375711158934102826e-03,-9.788442228291826197e+00
-1.292939182968255891e-03,-7.982863199178558827e-03,-9.789792848475929787e+00
-2.342918988306713635e-03,-2.812652353152161715e-03,-9.786920460091582896e+00
-3.326254212228268222e-04,-1.096241756295612477e-03,-9.790996917950707257e+00
1.082265411444084668e-02,-5.100333117699927575e-04,-9.801045513151311894e+00
-2.023354997572001344e-03,6.695740284616951907e-03,-9.797695919054561386e+00
-2.924674549603601282e-03,-7.311592922382632517e-03,-9.793444077238291356e+00
2.554341019308929792e-03,9.362391383416969904e-04,-9.800084581136465189e+00
2.253546696022779277e-03,-6.688999632451342325e-03,-9.791164299488691825e+00
-1.514677087626567541e-03,2.367851434795210062e-03,-9.794829333993643417e+00
-3.855423223468581063e-03,-4.677205152615217590e-03,-9.782297739425064975e+00
-4.467121467026495714e-03,-1.457628391418223663e-03,-9.785105533954611801e+00
-9.182977884794543558e-04,5.592997184714174237e-04,-9.800428649434566708e+00
-6.901066663829528644e-03,-7.826796140350440051e-03,-9.796025461968126180e+00
2.655127315680720895e-03,-1.942797541795861661e-03,-9.796624435278614484e+00
-5.447861057683909755e-03,3.475230711563450682e-03,-9.793297915045393154e+00
-4.701145355010022571e-03,4.536464896933654553e-03,-9.785064513980453071e+00
2.358483916727385603e-03,-7.063625486712674963e-03,-9.793180122838322177e+00
-1.876474539188061758e-03,1.427593898326156522e-03,-9.795376735746065933e+00
1.399812221598658755e-04,4.180566570103591215e-03,-9.795387954877098124e+00
-7.714213999630752452e-03,3.731575371077445243e-03,-9.800751806568152702e+00
-4.195865422484439805e-03,2.224699985841870065e-03,-9.798391137792856753e+00
2.083258445851163872e-03,1.036121776335597981e-02,-9.798642540507996657e+00
1.723385295357369985e-05,-5.436962782175894411e-03,-9.784162371155963100e+00
4.949777634256522993e-04,6.157673693021266034e-03,-9.794401637302001973e+00
4.672722325713083054e-03,-5.327238766444570769e-03,-9.786208888106003201e+00
-6.329041317435230539e-03,1.167464273463523095e-03,-9.797909742589428816e+00
-2.241395122485631206e-03,-1.352260602805906674e-02,-9.789021272566746035e+00
1.973999956497532807e-03,-6.477459099699328302e-03,-9.793358421208861131e+00
-7.913563689393719389e-03,1.140777639591635667e-03,-9.796137411996507893e+00
1.611213951324866117e-03,2.258907824486830473e-03,-9.792957195758747346e+00
1.122042251299862521e-02,-4.166278801354933621e-03,-9.789677074145522795e+00
-1.061762459938223394e-02,-4.263770509831453590e-04,-9.791667765638447207e+00
1.183080836916029950e-03,-9.501538067627652304e-04,-9.790161512886493611e+00
-2.111483005742418196e-03,-2.911470200921627630e-03,-9.796390940972205641e+00
-7.298951593113943946e-03,-7.136415262063110915e-03,-9.788245613079730845e+00
-5.368083471138093005e-03,-2.987337809535703728e-03,-9.789242090518857964e+00
6.227240254052623762e-03,7.621243041402533946e-03,-9.794595707861134315e+00
6.834890212096892933e-04,9.772476779379094675e-04,-9.788993121006500431e+00
-4.940940013051640066e-03,3.998671440580397335e-03,-9.794200532711352380e+00
1.612632637968088641e-04,9.133724591493641576e-03,-9.787833131191238323e+00
-3.487012736670708647e-03,-3.416390880913010557e-03,-9.790629969894240503e+00
1.725596126128964292e-03,-8.079390009975526143e-03,-9.789713724960703800e+00
-1.258830888140314436e-02,-3.450041336599603704e-03,-9.789593432465109046e+00
1.082170451918781223e-02,-1.369582036717408241e-03,-9.789816342583470998e+00
2.066219154403679592e-05,-2.216006386430828274e-03,-9.792436718996814449e+00
6.209317003819140972e-03,1.310609933173497582e-03,-9.783060407735597153e+00
-5.694521130917493124e-03,3.308755663707027735e-03,-9.789338356135182551e+00
9.165781640400313740e-04,3.954264700183782351e-03,-9.801955956619901045e+00
1.615214835781698423e-03,-3.959707136479255225e-04,-9.797443053947050728e+00
-5.771888638660631734e-04,-4.172935271052747967e-03,-9.794370071939226818e+00
1.123498139335916794e-02,-3.632814185784042499e-03,-9.801673311407260059e+00
3.101505107195395849e-03,9.298966310128244789e-03,-9.800992326617897987e+00
1.276508873179916593e-03,-1.812892557328382639e-03,-9.784062310318038413e+00
4.632664280844714551e-03,-1.192079655034753057e-02,-9.793095507821263368e+00
3.614344887331970291e-03,5.133002103057256529e-03,-9.787803655417786075e+00
-2.255736263757323592e-04,1.013747890649953484e-03,-9.793551101965130457e+00
6.208452934325925376e-04,3.950457883012811408e-04,-9.790941540821313183e+00
-2.798909335369330863e-03,1.115464776618079563e-03,-9.785710428159640983e+00
6.639544837109742897e-05,-9.396288044175582499e-03,-9.785090598952256968e+00
-6.285288352790217165e-03,-4.805549475396821407e-04,-9.797200086974049427e+00
1.596387286894771504e-03,5.766340673118994578e-03,-9.797340186675839391e+00
1.980241954126369264e-03,-2.240129998965261198e-03,-9.792643126991890767e+00
-1.508055842171465277e-03,5.409617730292413593e-03,-9.795656772556869285e+00
1.026805711837126475e-02,1.736145521390969164e-04,-9.794773119906873049e+00
-3.010618494800491440e-03,-2.757741699041763462e-03,-9.790633663712856816e+00
-8.968443370140202764e-03,-7.577735537894631120e-03,-9.797418977692093023e+00
6.682709456597799719e-04,-7.419592866427960655e-03,-9.795651779154926686e+00
-5.015616922236657352e-03,-4.870851539200098460e-03,-9.794485573183148830e+00
-3.841759472720274963e-03,-6.156624719913081703e-03,-9.789052076722407847e+00
-3.747306966610675777e-03,6.287463218377783818e-03,-9.789690460292311158e+00
1.086280088055401960e-03,-1.745519968514629237e-03,-9.790549135419389870e+00
-1.732921804169044186e-03,-6.270146712021205763e-03,-9.790361236125843192e+00
2.642372035642853723e-03,-8.805593991584548209e-04,-9.807045360340538309e+00
-2.339952807270600371e-03,3.535241495095102666e-03,-9.802194989664132052e+00
-3.473828772697446702e-04,-7.670533749716804475e-03,-9.786403951550804337e+00
3.080709942959652470e-04,1.888784322607579228e-03,-9.799608105454790774e+00
-1.679452330001109887e-03,-5.340130491761234388e-03,-9.797932161245261895e+00
5.035664811500292120e-04,-6.021061778856627925e-03,-9.796325184114447637e+00
3.055340598561413030e-04,-6.638058703254142269e-04,-9.791009702837916606e+00
4.956288859552871254e-03,-3.934927670260302511e-03,-9.795158435992366464e+00
1.635358992682694459e-03,7.273716510659920115e-04,-9.800325477802255492e+00
1.075919052628873966e-03,-3.998198680498034341e-03,-9.798147276037459719e+00
4.109704699669662967e-03,2.114637811096413064e-03,-9.795716897636484788e+00
-7.672924221915151423e-03,-5.192704657269319943e-03,-9.795690555019239909e+00
-4.059112342801247838e-05,-6.521766154881017538e-04,-9.796984618086954200e+00
-7.716135059047544899e-04,5.096398656679509628e-03,-9.790191194686940435e+00
4.602041200703690070e-03,-2.542405038296220547e-03,-9.793722399435919712e+00
-4.597285535051479251e-03,1.369835918963641748e-03,-9.803894125298377560e+00
-3.812223068919902771e-03,-8.441884069738430502e-03,-9.791528798785137155e+00
6.704154059429408806e-03,-5.857571015383189299e-03,-9.794260797084064052e+00
4.405762543590805748e-03,3.946997324940837958e-03,-9.786076997912125819e+00
5.521619247946626952e-03,-4.708270386978836639e-03,-9.799696547666838953e+00
-7.471149383163284800e-03,-5.701179064216116595e-03,-9.798025354250132324e+00
-2.430220233597295883e-03,1.482738970277665009e-03,-9.795577115264933354e+00
-1.081122752511837464e-03,1.792394583103965825e-03,-9.789515250588536333e+00
1.659994441578497215e-04,-5.075385087394867134e-04,-9.797750791448613938e+00
1.986065428996298520e-03,-3.743938498812902048e-03,-9.787972996679966897e+00
-9.174669818070574703e-03,-8.001925701574982147e-03,-9.795320969084668761e+00
-1.066783458318144688e-03,6.492793486152973088e-03,-9.796628733177000115e+00
-6.136977727995034104e-03,3.942550685631150340e-03,-9.793674111787352032e+00
2.815270099955309363e-04,-2.966323884601457499e-03,-9.795842399302708614e+00
3.144885409675246459e-03,1.751519330830585358e-03,-9.796092901682339260e+00
1.296311498499322628e-03,-7.274302946849785928e-03,-9.791165896205503927e+00
-4.606073142165270466e-03,-5.285691440520668034e-03,-9.789788302401504438e+00
-7.868627363654666709e-03,4.548926013790668271e-03,-9.798570860395855675e+00
1.173385227377947730e-03,-1.170613464613615498e-02,-9.792440156298738430e+00
-1.109669099834826797e-02,2.253746013954369826e-03,-9.798359866880829827e+00
3.679504415301717603e-03,-4.780363872387696951e-03,-9.792251060276072394e+00
-2.521836507255214785e-03,-1.086504881009577646e-03,-9.792587815920821726e+00
-1.372022928286422642e-03,-4.726669816848020830e-03,-9.791430842352047748e+00
5.284850840148245903e-03,-4.466560184989795679e-03,-9.797883826955064990e+00
-7.636500881792087324e-03,1.624198306652773578e-03,-9.790441237020525378e+00
4.084117339836315294e-03,-1.740536021060262468e-03,-9.794924535777520092e+00
-4.365904619498377388e-03,-2.805289803426968924e-03,-9.793609333907181025e+00
3.199951474541695359e-03,-6.785002953852948496e-04,-9.800390077855972493e+00
-9.160608879775898497e-05,1.277316986476682154e-03,-9.796823105267311149e+00
6.118496853098074131e-03,-5.363013598198919894e-03,-9.792152968953740100e+00
3.078505370675383660e-03,-2.818265500770068994e-03,-9.790018896134876414e+00
-9.330744167606448009e-03,-7.062080246938211292e-03,-9.788910632697787051e+00
1.299091637542964649e-03,-1.560561993041455512e-03,-9.791020351917493869e+00
5.452318287427381427e-04,-3.892322664765547439e-03,-9.799517244046093367e+00
3.800022984723560628e-03,5.460484363218907899e-03,-9.800872252443500798e+00
5.367969941657661781e-03,6.165243173068924581e-03,-9.792783753201090846e+00
-1.013015537066191789e-03,2.855564745108036574e-03,-9.798444997363635167e+00
-9.704484962135743673e-03,-1.297302743640271934e-02,-9.790220461167633559e+00
-3.363408106198065555e-03,-2.934866647495532836e-04,-9.786493050094431823e+00
5.027151142744583183e-04,7.262762359758088634e-03,-9.790958431685043095e+00
6.286348210234711346e-03,-1.124735290960570018e-02,-9.803803540745619216e+00
-5.298760453171069695e-03,-2.971947134502029263e-03,-9.785102186215659970e+00
4.833596601595097422e-03,-2.156590972098222127e-03,-9.799508447667962585e+00
-7.005634435019809838e-04,3.678486581676899264e-03,-9.793075413882485591e+00
-2.056236615639511506e-03,4.882960597629927742e-04,-9.785360896044544177e+00
1.410909896281352860e-03,-8.100842447339740363e-03,-9.786619394761984836e+00
7.049857184317814135e-03,-5.878370144907077606e-03,-9.787929224269939610e+00
3.539075381628382249e-04,2.944023733206666861e-03,-9.787042128811734187e+00
2.612274824643939872e-03,1.616260182637437081e-03,-9.797967290290451103e+00
-2.568189068440526567e-05,-3.931004591532507534e-04,-9.796640079150821023e+00
2.600848849329414313e-03,-6.337911304913837127e-03,-9.799586971507199706e+00
-2.621934811816470736e-06,-3.593162394839607629e-03,-9.791124320854507346e+00
-4.714906641858926731e-04,5.888623055394891746e-03,-9.792542421841499589e+00
3.194120612702182338e-03,2.646084448373696614e-03,-9.792130075485692586e+00
-2.247761862059685384e-03,-7.038028994139344623e-03,-9.782442545301291759e+00
4.812432333174822101e-03,-5.897709011114613681e-03,-9.796670689880727423e+00
6.450886478581855862e-03,6.103273719904872031e-03,-9.796308603721380237e+00
9.329917131867176971e-03,6.166736997607337803e-03,-9.799731984174394839e+00
-9.239152455231328803e-03,-8.924734918786876581e-03,-9.805243738332837466e+00
-8.048416233933536681e-03,-1.043044243331983298e-02,-9.789449267378476094e+00
-4.505908765231421940e-03,-1.689270277332701603e-02,-9.794804584217459364e+00
2.575768316507165076e-03,-6.920736455172968142e-03,-9.791983203438469729e+00
-4.908679347127058862e-03,-6.555396636102125626e-03,-9.793951827873652149e+00
-9.638361217674554183e-04,-2.120369302650883074e-03,-9.794360644856350717e+00
-4.239718274903895613e-03,4.195619255916904246e-03,-9.798003978845033046e+00
3.234612479143254143e-03,-4.928250907748267951e-04,-9.791616533252078369e+00
-2.155987671599859327e-03,7.299453435300026945e-03,-9.785373405136251534e+00
-3.126861856065997047e-03,1.560383521672255780e-03,-9.781663480112758435e+00
-4.449730045333616900e-03,1.427474440549892157e-02,-9.789364167378293402e+00
-3.068503433972977115e-03,5.016824362391459312e-03,-9.792422780067283838e+00
3.571956765392255914e-03,-2.180145900105357089e-03,-9.789362952206689172e+00
-4.403957854465726375e-04,-8.769755403101571825e-03,-9.790694785537501943e+00
-4.699210995393564988e-03,-8.328430521545266557e-03,-9.785613637637457174e+00
6.909055617568094637e-03,-6.952967577011392661e-03,-9.792158254127221184e+00
-1.399272515103630989e-03,-5.096690075145713511e-03,-9.799282548508998048e+00
4.848081314423616228e-03,-7.383728222164533291e-03,-9.798879486945624606e+00
-2.365922151070171901e-03,-3.487328610961975932e-03,-9.793478540023278001e+00
-4.756108178410752528e-03,5.525105050259015039e-04,-9.792809295927556335e+00
1.422545688069205014e-03,-9.692013937293889395e-03,-9.794005426169317019e+00
-3.099574070628091822e-03,-6.417370282731368197e-03,-9.799649099370533634e+00
-1.452759635283764044e-03,1.621813131910927654e-03,-9.798329789999387529e+00
7.305539284617086626e-03,-9.590108426248656563e-04,-9.795697089465745577e+00
9.725324638603604493e-03,2.990302513684356140e-03,-9.792999816994370832e+00
-3.426604585455270396e-03,5.473564804946248752e-03,-9.797573557442635916e+00
-6.817880237156495951e-03,-1.793186529523987591e-03,-9.795332571384806286e+00
-5.655119295235166293e-03,-9.586728518267662816e-04,-9.796021691430571110e+00
3.144270318554585279e-03,-3.045988678349043945e-03,-9.792557181101592789e+00
-1.880973232754116087e-03,-7.524515998558309673e-03,-9.785476174362161217e+00
-5.672788259686755395e-03,-1.902090146292031818e-03,-9.789758825966401901e+00
-2.038657829948154615e-03,-9.216776568343836712e-03,-9.786046819322892887e+00
9.850687055204448983e-03,-4.974755566315201306e-03,-9.794542610567591012e+00
2.166686759727160655e-03,3.419111939701202120e-03,-9.795144444824389396e+00
5.739618910295124152e-03,1.120380122563779772e-02,-9.794105260769208954e+00
-1.407162229734846594e-04,3.995226879266807092e-03,-9.786512470880078141e+00
-4.275693740344319385e-03,-9.586427674112682137e-04,-9.793916078527447056e+00
-2.977554290997559694e-03,6.213850913965725947e-03,-9.791822742475273955e+00
3.647531367306908277e-03,-9.484688903959939688e-03,-9.791984826901037664e+00
7.321112459315078438e-03,-3.707606822350092979e-03,-9.802518326668359094e+00
-3.665412438664841267e-03,-4.374022688724233873e-04,-9.793130246429136321e+00
2.245018811145511103e-03,-1.890253932683803612e-03,-9.798457644650353515e+00
-7.685250633745355914e-03,3.602568917154509460e-03,-9.795434786181466791e+00
-1.070415612883730654e-03,1.878395232575436492e-03,-9.783706439968240076e+00
2.940979622917137609e-04,-1.757566778295415648e-03,-9.795979536581320701e+00
1.007874201761889714e-03,7.263150940481361961e-04,-9.787595233680095319e+00
-4.420013263381699677e-03,2.024605132433499131e-03,-9.800087807264947770e+00
8.635274064408716282e-03,7.728143530809250972e-04,-9.792947975490264412e+00
3.563960225396439058e-03,-6.542700179878395417e-03,-9.784383813840936028e+00
-8.292668346032086449e-04,2.661681293257578320e-03,-9.803648031385508332e+00
5.344232055538135698e-03,-4.004008327076267852e-03,-9.787247314080810057e+00
1.152108755494454345e-04,3.757018216397637212e-03,-9.800043376675034779e+00
2.685030655791869302e-03,5.594475133364019276e-03,-9.790426347059172585e+00
-5.307303144651766454e-04,-1.539362403299565467e-03,-9.791353994302145480e+00
-1.257086261632009601e-03,-4.615338795495253950e-03,-9.787911312952589427e+00
2.625916969223275697e-03,-1.298806613461015282e-03,-9.794507143467322763e+00
2.829079533842653212e-03,7.864120332945095156e-04,-9.800407651254420927e+00
-3.303981260359690076e-03,-2.871687384382861849e-03,-9.793968088765984348e+00
8.053853960988706720e-03,-9.194738500957940971e-03,-9.792635748228569526e+00
-9.322163104796200861e-03,1.041532749028855828e-03,-9.787907829380701585e+00
-5.369651836768994831e-03,9.187587521564880358e-03,-9.784047024674272564e+00
7.854013207378699249e-03,-1.239045068147763291e-04,-9.792395349342971400e+00
-1.014036622358515868e-02,7.302124102180043187e-03,-9.792660632461130277e+00
1.598758348885221368e-04,-7.271058027718374853e-03,-9.803220723414474591e+00
1.173625111359826063e-03,-2.823222805181452126e-03,-9.797044078642848319e+00
9.431384517955578289e-04,-5.002124163522477830e-03,-9.800874704579092267e+00
-5.961666810914208192e-03,-3.370735217655550404e-03,-9.795858894787739857e+00
-2.408253755212049103e-03,-2.580801878097911412e-03,-9.793276319250081130e+00
-2.103560265558639293e-03,5.924492190835227781e-03,-9.795660177363988197e+00
6.449507732346470949e-03,-7.293694441759543748e-03,-9.794284449229046174e+00
4.817135620497634343e-03,-5.698733974512438724e-03,-9.801518573564857562e+00
9.118223038660201729e-03,-1.918274140637343545e-03,-9.792223708285238359e+00
-4.467437796690267894e-03,-1.336971221528244699e-02,-9.796681812377098453e+00
1.700589958592782372e-03,3.466798019811800306e-03,-9.797853895886943221e+00
-3.831043494373148010e-03,4.971123554899910344e-04,-9.791843332789991194e+00
4.303286573188170455e-03,-9.131281588336015095e-03,-9.792370303147377442e+00
-1.964545073520521969e-03,-3.128730752037183968e-03,-9.802188630521671442e+00
-7.056495464219093156e-03,2.919728125922963369e-04,-9.798191502208839054e+00
5.908570663000677070e-03,-1.094876059745277354e-03,-9.783857216074961727e+00
1.529265272624831702e-03,4.338371897884698604e-03,-9.800432908704202362e+00
-5.845402984177283483e-03,-4.324091137089965640e-04,-9.794104939364439488e+00
-9.508465237787276213e-04,5.394438922039785332e-03,-9.786882998810305878e+00
-2.880010770603885946e-03,-5.727449239888464036e-03,-9.791878333270405577e+00
-1.884131817785403458e-03,-5.534116862233609763e-04,-9.792840416168948181e+00
1.988903049540100519e-03,-3.780645015679063095e-03,-9.793717839628190092e+00
-2.018914814250833550e-03,-8.779900830785836163e-03,-9.792457232838257752e+00
1.760014562144099565e-03,-1.950849204196833863e-03,-9.786491005100609542e+00
-5.388797966169388276e-03,-1.714045876092358360e-03,-9.793117393555750283e+00
6.646705918178158652e-03,5.280818181463794135e-03,-9.789260726062172679e+00
-6.712317062190688126e-03,-9.397720034660527952e-03,-9.792752798663837410e+00
-1.221126008661130302e-02,-1.357132786123894539e-03,-9.795324460754383011e+00
1.537889961550613512e-04,4.197773179600705964e-03,-9.792779112494683247e+00
-4.333046967922665749e-03,3.817396918116378740e-03,-9.797691937480243141e+00
-4.482210833690026229e-03,-5.710232413599677058e-03,-9.787020719637126831e+00
-9.646573263902773199e-03,-3.492273644594268752e-03,-9.795024552943635499e+00
-4.256137021477649309e-04,-5.328025164071480482e-03,-9.789069074695271766e+00
-4.173017434506459027e-04,5.525160441155728581e-03,-9.794867139349431540e+00
-1.571896753724140970e-03,4.797335058300450199e-03,-9.795022197533411301e+00
-1.359574019976202228e-03,-6.486589599836270134e-03,-9.790304949118716848e+00
-9.268504817085130350e-04,-8.748980591596108858e-03,-9.796560120554371309e+00
4.857317827164405431e-03,1.890853453936501300e-03,-9.793509732034646476e+00
6.340816035993340240e-04,-2.409515313638919617e-03,-9.783843540444129516e+00
1.386307383140844172e-03,-4.562476747101574387e-03,-9.792221988397832533e+00
-4.455590167951641901e-03,6.727524249051003262e-03,-9.798022744972216813e+00
-5.308660171900328809e-04,-6.319627633216969714e-03,-9.791474656422861855e+00
-1.180351368518674400e-03,-5.665183130908134010e-03,-9.797328292586930942e+00
2.844917780283752300e-03,-4.143348976445028822e-03,-9.792865115152224575e+00
-1.575868430573817503e-03,-8.817902422456089934e-03,-9.798973871619475418e+00
-7.427155470270161526e-04,1.297168747496736402e-03,-9.798404043998228730e+00
1.677918509062086352e-02,-1.319134662371058194e-03,-9.798260211144324217e+00
5.340344639504724690e-03,1.382984310711437344e-03,-9.797130994074054300e+00
-2.449888822488271826e-03,3.531114262139098750e-03,-9.791969556232231753e+00
-8.742512043576813191e-03,-3.568228394980495037e-03,-9.797662575040344990e+00
-1.835204784412951479e-03,-3.226583208485861269e-03,-9.793885478794457811e+00
-8.194860297797349272e-03,4.219073375087518604e-03,-9.790694855814269459e+00
-4.443323199803968400e-03,2.210758618926679606e-04,-9.803536938951729951e+00
6.625253202809440467e-03,-2.039123965345478358e-03,-9.791681660280636024e+00
4.360419054719688776e-03,-6.382350662330928126e-03,-9.793683628037385347e+00
2.936725479178448062e-03,-1.649833959938745102e-03,-9.798092557153118776e+00
3.567789167826497521e-03,1.665273381390333478e-03,-9.796000672638873752e+00
9.259971491730833656e-03,-1.329302627005363082e-04,-9.805396946170347405e+00
-2.138237880475139709e-03,5.235300361192841284e-04,-9.791272947303694352e+00
5.053630342694966950e-03,3.619794116703410353e-03,-9.782997297950636550e+00
-2.430883778623868074e-04,-1.406360207591138452e-03,-9.788005408447904898e+00
2.776594353915175228e-03,-6.272252580203291523e-03,-9.794707331113228221e+00
-1.099848633189187165e-02,3.941927547017979108e-03,-9.794486233214971804e+00
4.089674010238585761e-03,-3.843003571864624015e-03,-9.791684142663408252e+00
3.517547695601841527e-04,-7.959123289612644869e-03,-9.793905848314789608e+00
-5.836309412773397522e-03,-4.122362491084607949e-03,-9.790020283150587588e+00
-1.421104522459761725e-03,-3.113245834229921415e-03,-9.784205948572971323e+00
6.812365119259070415e-03,-8.280297759024257340e-03,-9.793802509493268360e+00
2.813224963877072795e-03,-1.946871583838615883e-03,-9.795176567187299455e+00
-1.863673651831380257e-03,-1.034307267726195315e-03,-9.797139029953756406e+00
-1.530401881230923329e-03,-1.858123210804899731e-03,-9.793344963599610153e+00
-7.862902523477962105e-03,-6.514362970548472206e-04,-9.795973000708331213e+00
7.776568779262327605e-03,3.333604521912620754e-04,-9.790066563466247374e+00
2.063684594531386019e-03,5.462694246682973237e-05,-9.795590078167043302e+00
-2.135651787204418534e-03,-6.361706457536637875e-03,-9.787945312908172824e+00
-6.802882145393896200e-05,-1.097087573330293893e-03,-9.790687114497043098e+00
-2.791026242819641401e-03,-5.659087501546987246e-03,-9.794415301420801967e+00
7.220108521661365401e-03,2.452046372967695183e-03,-9.794007231198630592e+00
7.923411797790367184e-04,-3.010718176132352961e-03,-9.787627775133429964e+00
6.613096373531703563e-03,4.978652078626433566e-03,-9.789033507689440583e+00
-5.315971268409898538e-03,1.506446809913166958e-03,-9.791101695815195072e+00
1.815054642085766907e-03,-4.273168537514480773e-04,-9.785374709799022241e+00
5.532407750561137150e-03,-2.329817225451840008e-04,-9.797975557879585295e+00
-1.226871594508723105e-03,8.193534479779903019e-04,-9.794840144697463558e+00
1.548549894371436695e-03,-2.490418804496518333e-03,-9.793590554142152627e+00
-6.752471386556875392e-04,-1.802981779575375983e-03,-9.791677556782758529e+00
3.645849601216694102e-03,-4.019260747207960630e-03,-9.793784810843646937e+00
-1.105307838521759440e-03,1.691101193033968993e-04,-9.796547895069322109e+00
-1.822296877507127450e-03,-2.926429469894707702e-03,-9.792990687846975462e+00
5.620533288163841353e-03,-3.466149589157579460e-03,-9.792737146245611868e+00
2.655514163111014157e-03,6.744139335176345135e-04,-9.802902506638904612e+00
4.057171412388354409e-03,-1.453965676861906356e-03,-9.793170954968591246e+00
-7.288971469629767358e-03,-1.158591065131284355e-02,-9.793365038338951223e+00
2.883647452754927332e-03,-8.728563406259805257e-03,-9.792959762499339860e+00
-7.899458352745868800e-03,-2.958822865499347813e-03,-9.795969459856225470e+00
2.475885386911370716e-03,1.032763045162787482e-03,-9.796458194544202414e+00
-2.172549125856878486e-03,-9.772135544644009950e-03,-9.797718362921603585e+00
1.145166344232094804e-02,4.786846655364637541e-03,-9.802787794882057426e+00
6.512230389841461124e-03,-1.000886767989082882e-02,-9.788953134754395435e+00
-2.175623780539682160e-03,7.005231158201431774e-04,-9.787045141712932050e+00
-2.050029230918317107e-03,1.187093425587169631e-03,-9.791426650985874502e+00
4.391484183886829561e-03,-2.950394086383094534e-03,-9.786054982718203732e+00
-1.258346242481984826e-03,-4.675366180049397510e-03,-9.783021276838866243e+00
2.592782666959863279e-03,-8.304789448579827068e-04,-9.795636372697687833e+00
4.877249246317656543e-03,9.391171527664854760e-03,-9.796990154087815483e+00
2.018210122203376342e-05,1.138772742581070987e-03,-9.794845530260381850e+00
-6.239051725579257933e-03,-8.010396773945223370e-03,-9.795258118090908184e+00
3.468250028748464525e-04,2.120535739716731226e-03,-9.787112606549326799e+00
-1.061018560172315855e-02,-2.721615889471719514e-03,-9.798703948523582952e+00
-2.600911844568323285e-03,1.603250241834897017e-03,-9.789714374020096699e+00
6.743948872097415594e-03,-8.578606798484683660e-03,-9.795500338664519191e+00
-3.082038994787057902e-03,-3.841933003271052333e-03,-9.799522008387585359e+00
-7.822169013964378609e-03,-2.276629244890260046e-03,-9.803751776891823866e+00
-9.047464036227119682e-04,-1.500633865901053032e-03,-9.787256507715142106e+00
-2.429901711597819668e-03,-1.106540377278117208e-02,-9.788090452820853216e+00
4.634196965899449981e-03,-2.656287471691004196e-03,-9.785158023217716661e+00
-5.004275486496340478e-03,-4.889976815011310915e-03,-9.792793031830587580e+00
-2.679533212613948584e-03,1.308076171745009737e-03,-9.791733287802987462e+00
4.417987789209779949e-03,-7.356464751939356976e-04,-9.792243837734156742e+00
-5.335036701260809436e-03,-7.572415458883444790e-04,-9.796259328305119141e+00
7.459650587829212351e-03,-4.130187556930561138e-04,-9.793018848429547063e+00
3.211980152366570446e-03,-9.999112118141146709e-04,-9.785414352989347364e+00
-2.559501506287155479e-03,4.453137989239221595e-04,-9.799079101183572504e+00
-6.028328515209347739e-03,7.714196832935889085e-03,-9.790830654483499984e+00
-4.284969951046572567e-04,-7.029152657059149593e-03,-9.792458615852217108e+00
-8.524026713936806027e-03,-6.098141508385742857e-03,-9.799565728978253176e+00
-7.005428438575307323e-03,-3.426241615370123790e-03,-9.792231479015411466e+00
-3.091154477450655438e-03,-1.190284254915595537e-02,-9.794961390601679696e+00
2.200717319408226902e-03,-5.927033740260450115e-03,-9.789137806851570645e+00
-1.165306039872398419e-03,-1.647597047299511307e-03,-9.794271614969712658e+00
5.321074461935290656e-03,-4.904189286103311819e-03,-9.791644987689418045e+00
9.444471007162226397e-04,-1.705216319661305739e-03,-9.791013669198258995e+00
-7.597104984119581322e-03,-6.228378560274786327e-03,-9.789691536301578623e+00
9.437579195227693797e-04,-2.525279801377140493e-03,-9.786326570752065024e+00
-6.725014309996826464e-03,-4.777680365824767475e-03,-9.794836141086150860e+00
-3.101020924289069015e-05,6.142376142229395534e-03,-9.789681213379266111e+00
6.987415328391681328e-03,4.388431163060363752e-03,-9.791590121225267396e+00
-6.898641405290756312e-03,8.751351029243997076e-03,-9.793658589753787780e+00
-6.151400187723233236e-03,3.743384518291693192e-03,-9.797384013069537545e+00
-1.284996478214878515e-02,-6.792088014876470660e-03,-9.796725102567270582e+00
-6.855864977578309677e-03,-3.511925680762154924e-03,-9.786162858203859116e+00
3.840230859097452389e-04,-1.837963495109010831e-04,-9.789818923172472154e+00
2.630716166783221305e-03,5.975961391755475402e-05,-9.792506545635447424e+00
-3.504677141009869459e-03,5.749776468407680544e-03,-9.792630084852826045e+00
6.427927314509319576e-03,-3.221175660342630136e-03,-9.791329123242906718e+00
-5.194226719098504405e-03,5.447176491611660856e-03,-9.790531918697233493e+00
-1.313939914533563021e-02,-1.731944252719691112e-04,-9.795722366667618530e+00
-7.726845617901813464e-03,-7.412621166378215339e-03,-9.795511921752867224e+00
4.910999520400157088e-03,1.223143572068533707e-03,-9.795990570076622106e+00
4.292744468122860167e-03,-1.755073619025684884e-03,-9.797956140651711721e+00
-8.599185496725513661e-03,4.059680487127629439e-03,-9.798230488360962553e+00
-3.931112399283924128e-03,7.709151886944020857e-03,-9.797511295530316744e+00
7.020870934891581920e-03,2.850259742436717959e-03,-9.792640769105604548e+00
-5.794199527032271868e-03,-1.172036788609384823e-03,-9.799552220630895150e+00
-4.141337682064016520e-03,-6.716599295792378618e-03,-9.795930707349675970e+00
-2.457394430139790004e-03,6.697498557827116610e-03,-9.793925108927226120e+00
-2.184843792633918685e-03,1.651845976907950243e-03,-9.795234147737616581e+00
7.036721463154205214e-03,7.562820924748595887e-03,-9.793659421395883413e+00
3.738245415975807468e-03,-7.922356954353799302e-03,-9.790782009950422804e+00
6.812312152245724763e-03,5.284362341053942813e-03,-9.782461988539173703e+00
6.600049351802118880e-03,-1.501410167143232745e-03,-9.787570414330854618e+00
9.498547621429235741e-03,-1.460012156588100891e-03,-9.789369337209938848e+00
-2.584493032237500636e-03,-2.973483684458143230e-03,-9.793563739166208038e+00
9.745369970004929281e-04,-7.244813580944723871e-03,-9.787657507178840532e+00
-9.131557048888546638e-04,-2.797850920090315732e-03,-9.789556850392337140e+00
-1.138963403486539447e-02,-7.902982401193964571e-03,-9.801857813156811261e+00
-6.495885564929584736e-03,8.696533849300091407e-03,-9.787010324757117630e+00
-7.771434407320508726e-03,7.497804375282074787e-04,-9.787709209079551442e+00
-1.073712501441713082e-02,-3.004872134022802850e-03,-9.796075694394339450e+00
-2.225310155334890333e-04,-5.344937344951002783e-03,-9.792907449740003045e+00
6.329189924925616821e-03,-4.196749259703430254e-03,-9.783189980507271954e+00
1.584881681174489867e-03,1.875418040628544156e-03,-9.799199896249710662e+00
-4.892311953346885692e-03,2.466928384145416174e-03,-9.791712659274677932e+00
-3.082695198118894434e-03,-8.406471316916325643e-04,-9.792455197588122218e+00
-2.332007831458787761e-03,1.746010665509764581e-04,-9.798891865108455335e+00
2.318495222308322636e-03,6.062692754970139958e-03,-9.798030599791323070e+00
-9.196176801136718079e-03,-1.213198476920176712e-03,-9.795863546316830650e+00
-2.341414955251651213e-03,8.294516633141586076e-03,-9.795569077815349246e+00
2.938382992732882244e-03,-9.676909921198240117e-03,-9.792547951578661980e+00
-6.495884974980740620e-03,-1.140128632701492995e-04,-9.791084620813354178e+00
1.854295137229599807e-03,2.229091777942083900e-03,-9.783707971541385717e+00
-5.898944475512090356e-03,-6.067966692944908643e-04,-9.801621787533855823e+00
2.161259570539899189e-03,2.580173703459543930e-03,-9.795912978793211323e+00
6.936764755676265264e-03,-1.016471439074355994e-03,-9.796098130597446385e+00
8.461982627253351852e-05,9.295054352944202153e-03,-9.785456291889927272e+00
7.838991215873803223e-03,-4.991885190481520039e-03,-9.789829075476101039e+00
-7.670738336118976264e-03,2.397870947345344395e-03,-9.799130019125630753e+00
-5.048699131173721433e-03,-4.704272016299392185e-03,-9.792769637162114904e+00
5.679810806537462231e-03,-6.282213946420618991e-03,-9.793495019801374823e+00
-9.552256725229503476e-03,-4.774225109786643315e-03,-9.783803222782621489e+00
5.224594630909759271e-03,3.186675695164899527e-03,-9.796461661091383277e+00
-4.349844935897789235e-03,-3.923206538878049217e-03,-9.789030989298895591e+00
-1.832494069624740214e-04,-2.920402157082505751e-03,-9.797477549954651366e+00
1.499015265966232614e-02,-3.163526824263394790e-03,-9.792431469761414320e+00
-4.219744683885399798e-03,5.265223057942013465e-04,-9.796630128149432792e+00
-3.765254537682868278e-03,9.669967273553672568e-04,-9.787297790615816950e+00
5.298023089278333653e-03,4.940675130299049603e-03,-9.784433211110213691e+00
4.431040547180483020e-03,7.784808587889918002e-03,-9.786541389466583141e+00
2.081468630228522528e-03,-1.747851268524520029e-03,-9.785950033989838204e+00
-4.270952687488354716e-04,-6.201829848332766080e-04,-9.802543192014280038e+00
5.646373375657876871e-03,-7.973047730402912665e-04,-9.793026232789520336e+00
5.175732343470630138e-03,2.460465584927189371e-03,-9.791674787499417221e+00
-6.444056939545425057e-03,2.473209574387627389e-03,-9.794210074125771825e+00
-3.411720809291688816e-03,7.297530251334137519e-03,-9.791889275315337926e+00
5.647009705384735574e-03,-1.395608114939784691e-02,-9.797745511794930806e+00
9.172938548678444964e-03,1.319160354681463664e-04,-9.793316309168337952e+00
-1.378994248553561987e-03,-3.051665424093115940e-03,-9.787947297730443807e+00
3.462363312800941385e-03,-7.491419964601177608e-03,-9.792799984148096826e+00
-4.629750095763500613e-03,-9.840321046800675278e-03,-9.781664141137989432e+00
-7.673093552752268190e-03,-8.700308670577062975e-03,-9.788606781296911308e+00
-4.441437204124547462e-03,4.058977078855557571e-03,-9.786812602174764564e+00
-2.714542232614079818e-03,1.819120214952368430e-03,-9.795024510886543467e+00
1.103502615325474296e-03,-1.965437948855313331e-03,-9.793999801944908157e+00
-4.069854831431536819e-03,7.595448017600941841e-03,-9.794455659392117042e+00
2.110627035310083319e-03,-7.578469119557321512e-03,-9.796031532842881973e+00
5.734664368306200202e-03,-3.391430416381315243e-03,-9.786243392504463401e+00
-6.240478036832929759e-03,-9.628216524394545353e-03,-9.796023041203850923e+00
6.786939523669994166e-03,-4.517144044085142501e-03,-9.796319878379238233e+00
2.942501202443281901e-04,2.881166925871529293e-04,-9.804693354567833197e+00
9.759758574614635709e-03,-4.328162594638472124e-03,-9.799250913629412807e+00
2.377123994920289900e-03,1.778852099334947640e-03,-9.788236627173780846e+00
-1.775767556780232523e-03,2.460182338523545995e-03,-9.793782604769443623e+00
-6.057020980209983259e-03,1.208209168505820644e-03,-9.795354684984385329e+00
-3.375997362135014623e-03,-7.223499542690677531e-03,-9.803165013021231999e+00
4.093194776879139664e-03,6.855447175413366748e-03,-9.799278470836789268e+00
-4.995128449919769564e-03,-4.645527493248614685e-03,-9.798733340979163486e+00
-3.557731601114453527e-03,2.366218403352488356e-03,-9.789024759370962059e+00
7.763107199201090512e-03,5.714007002209523043e-04,-9.790623682768348601e+00
-7.834624994428633291e-03,-4.813385845628471646e-03,-9.789957548880090954e+00
-1.021578887584053026e-02,-7.414055054173908539e-03,-9.792600816674395858e+00
1.287442868495653403e-03,-3.537764464429556544e-03,-9.789195687337414853e+00
-1.870741985779787427e-03,1.782107294781058076e-03,-9.789764977651895350e+00
5.431540316693365435e-03,-5.597070743864826503e-03,-9.798386061231674660e+00
1.958760787209740464e-03,2.194770428657132760e-03,-9.789301579526146213e+00
1.752728305473262246e-04,3.783834117650744858e-03,-9.795872340184358151e+00
-5.913548754457547026e-03,-1.660243669478708630e-03,-9.802129009857502240e+00
-6.381263646386763425e-03,-3.489216408323542792e-04,-9.787947514279579764e+00
1.004068200943411754e-03,4.438825154146083894e-04,-9.791335029914822741e+00
-8.460414569910366597e-03,-9.270741939609344201e-03,-9.791353438833970912e+00
-1.730843348414657723e-03,-3.564430616557634317e-03,-9.786612182963370543e+00
3.572113147908574302e-03,1.976546689911507729e-03,-9.794918823976397348e+00
6.136790643807785335e-03,2.351510341766313399e-03,-9.797976647101380721e+00
8.139635065226073773e-03,-6.609732697971704195e-04,-9.798343037896078300e+00
1.070394124668874562e-02,-9.988836511904037891e-04,-9.799042693921180103e+00
2.868663769953227506e-03,-2.528158999560633016e-03,-9.783749780414092712e+00
1.088736280969323025e-02,-1.424084170649510608e-02,-9.797453200455564115e+00
-1.934944007567508759e-03,-1.312358558744046487e-03,-9.791492785459736226e+00
2.335317011970781953e-03,4.568844743860458329e-03,-9.793230078743457412e+00
-1.774348679251673815e-03,-3.239510137937221240e-03,-9.790693987093954220e+00
-4.320762524770633758e-03,-1.513098930486340369e-04,-9.787652072353241195e+00
-1.037937860888640818e-03,3.605290380505613707e-03,-9.792509776561713508e+00
-4.698280199940177253e-03,-7.063198160700693336e-04,-9.787280330312201571e+00
2.324734377000450131e-03,-1.124206383152687519e-03,-9.796263122927527434e+00
5.065659085839480623e-03,5.909704569199618427e-04,-9.794089268325453901e+00
-8.977692931720806634e-04,-4.466244353716895040e-04,-9.785593769358866822e+00
3.931828876061172449e-03,4.036900486740638630e-04,-9.793473777717284889e+00
2.753324786614833302e-03,2.107150196982775052e-03,-9.795987652180617289e+00
-1.107662284866363193e-02,-1.005785333138433171e-02,-9.795115299269951947e+00
-8.761412251589923914e-03,8.356939613427444985e-03,-9.802613772207449117e+00
1.292923271851402142e-02,-2.475273353747448057e-03,-9.795100093786555107e+00
4.749892120151191538e-04,-4.971653326770164236e-03,-9.797345098504358418e+00
4.808840760947303422e-03,2.666438841356094311e-03,-9.793554266049021351e+00
3.790630715376219761e-03,2.213834665656151321e-03,-9.801026095954950890e+00
-8.417596252767776607e-03,-4.452404717888891646e-03,-9.793905628102184124e+00
-9.749564366674640797e-03,-9.245216354537804174e-03,-9.797698629745656973e+00
3.089348070328886819e-03,-7.144884617488255624e-03,-9.796058573597054675e+00
-2.228553734794094365e-03,-1.158593921382518321e-04,-9.789532988141878889e+00
-2.889022196628070367e-03,-2.993422744540025909e-03,-9.787714670774439796e+00
1.700250890396438810e-03,-1.792132258414332133e-03,-9.795412178893467825e+00
1.788688607216504375e-03,-5.355382722686326258e-03,-9.796492304655297190e+00
6.349954764429712774e-03,1.077800482730211775e-03,-9.791890950279572792e+00
2.972928247239205353e-03,-1.919670050216698912e-03,-9.791186802485887242e+00
4.834209756956982565e-04,-2.900509992814305493e-03,-9.796276757039109384e+00
5.815596173449258562e-03,-4.079631442323125405e-03,-9.794265892207260293e+00
-4.796497486014462443e-03,-1.128633713749262191e-02,-9.805271335075989469e+00
2.279606561367580018e-03,-6.837007039703690836e-03,-9.795631070783789696e+00
-1.087079654062124033e-03,3.901962076576682634e-03,-9.799413019980969253e+00
3.182289930589093317e-05,-7.426068187792954009e-03,-9.799729499109107067e+00
-5.286010126243449563e-03,-4.849026820266105244e-03,-9.801665771343618161e+00
9.080477813634165027e-04,-6.555551953976370295e-04,-9.794744600068062468e+00
3.976865701708406226e-03,-6.010021739166792384e-04,-9.791580800251656669e+00
-3.931549005318646242e-04,8.916638972775372141e-04,-9.788193226954597037e+00
-5.873646061744636042e-03,-7.233320951605465114e-03,-9.790945315317191699e+00
1.333210526664299232e-03,8.088257146242404209e-05,-9.794448900132952218e+00
1.335624400842633057e-03,-2.450655451791224591e-03,-9.784726105186495104e+00
-4.950444702071749720e-03,2.402400233500638378e-03,-9.794066672604930801e+00
-9.279189383457867209e-04,-1.298734653831379619e-03,-9.798328606949540998e+00
-3.633998424807778193e-03,-5.630043921254416009e-03,-9.791815949170709743e+00
1.647249770751589007e-03,8.683482252169416604e-03,-9.793601625252636111e+00
1.506798372347687787e-03,1.594284532724149148e-05,-9.793203289102125453e+00
-4.150427775179299159e-03,1.791437231166881968e-03,-9.798275322080222338e+00
-1.098964518416727099e-03,7.780503296711048337e-04,-9.798704876018531351e+00
1.035457742288464246e-02,1.200466637767405153e-03,-9.788336197435594244e+00
-5.167257809284002846e-04,2.047703338261946775e-03,-9.801020325989041382e+00
-5.830685099367066172e-03,3.357663174147244248e-03,-9.793954921626507826e+00
-4.717165886405445298e-03,-2.023311134305711377e-03,-9.795621105837645004e+00
7.534173696890293214e-04,-1.008633251771356466e-02,-9.789734420828585471e+00
-2.129978863741656143e-03,-4.933988021714765231e-04,-9.802307518057849833e+00
-3.924164419758677420e-03,5.929126591827367336e-04,-9.792058000227022774e+00
7.932246085441661126e-03,-1.660685831934373457e-03,-9.789172158189906270e+00
-5.169381093684729915e-03,4.420882578722748653e-03,-9.791489850867559852e+00
-5.960651942355386403e-03,-8.636497331276355230e-03,-9.797303599655249329e+00
-3.742167702130917446e-03,2.661967012500739485e-03,-9.800797898264699270e+00
-6.366475980190351540e-03,-1.284710079589046830e-03,-9.796618945397465694e+00
7.923087210709015005e-03,2.885619651217674261e-03,-9.790277911620908213e+00
-2.077582092171991954e-03,-1.480045047109580705e-03,-9.786929735957363263e+00
2.643289673138672895e-03,-3.993341055624132982e-03,-9.793062965067854009e+00
2.893261984665906374e-03,-1.138917257735202679e-03,-9.794373646490948104e+00
-2.520324326754322820e-03,-3.947463638700529978e-03,-9.790469516606991718e+00
1.370621208773989885e-03,-3.231770420145671854e-03,-9.795585829550510937e+00
1.377849849069272140e-03,-8.126805339658529567e-04,-9.792399107797956859e+00
2.819328539415993495e-03,7.762418679312826138e-04,-9.788542325916015585e+00
8.497994065295336880e-03,-2.006967833708058879e-03,-9.802803556691078057e+00
-4.106016596710226028e-03,-9.604088489241460920e-04,-9.802838433647785621e+00
3.006907271598592644e-03,5.957636343084616801e-03,-9.796498560298841696e+00
-6.594880727144369903e-03,-3.744989184418482005e-03,-9.794832434425931211e+00
-1.487389557853687058e-03,-2.841345746232708767e-03,-9.791674224379670832e+00
2.987161886310993244e-03,5.332588983865044208e-03,-9.791336646417800438e+00
9.950221540374866794e-03,2.397266270178652348e-03,-9.795244531341539940e+00
8.270062489338040473e-03,1.092345182934097115e-03,-9.786717315011456364e+00
8.520408321664679416e-03,-4.784894377407516303e-03,-9.788874910103569249e+00
-2.402164073402943806e-04,-1.612778037497624405e-03,-9.788756623313759064e+00
1.596286010738250279e-03,2.074720981554704653e-03,-9.794936410817557615e+00
2.424112672445418110e-04,5.504590378797621485e-04,-9.787166257839265526e+00
7.827932908084396643e-04,1.267516229172724199e-03,-9.789027646690319884e+00
-2.647769757650374634e-03,6.373081261713228404e-03,-9.788859971773860025e+00
-3.434437617140602764e-03,-5.385518311716257570e-03,-9.795249842146372288e+00
4.765018573808106270e-03,4.672371334706571303e-03,-9.798928951641187268e+00
-3.589899025253107459e-03,3.177541295953604811e-03,-9.792599028819594764e+00
6.094823534146981067e-03,-1.545327841109805055e-03,-9.783184108810122126e+00
2.679660559052241941e-03,-1.248176120555160966e-02,-9.804008427439720563e+00
1.484435577748858100e-05,2.430731862097699862e-03,-9.793941812562648508e+00
3.424357778998800197e-04,-6.232952620469983489e-03,-9.790249577023091732e+00
-5.059567934885315053e-03,5.564201725721334112e-03,-9.789839710281150076e+00
-9.339664469005609865e-04,5.463882580759259894e-03,-9.789763847557461318e+00
-9.129352828706990049e-05,3.636621287480768829e-03,-9.794593748899753649e+00
1.486299643026341545e-03,6.906209902308348657e-03,-9.799473980909576554e+00
9.454744030541843963e-04,9.083231121706034777e-04,-9.803246184859499834e+00
-2.428509510155435393e-03,-1.159467155574241170e-03,-9.791707329037155461e+00
4.912325203847641179e-04,-4.497006109515154330e-03,-9.790460856021613978e+00
7.003984253070319682e-04,2.653802249424029418e-03,-9.786172195816831731e+00
-3.896275640816651738e-03,1.277656863598578560e-03,-9.799448790603102921e+00
-1.234475422886703241e-02,7.981272626243218066e-03,-9.802175639772487514e+00
-2.834348513302420523e-03,-7.410479465432146147e-03,-9.788744668399687043e+00
-7.482494647713363103e-04,2.942612988328552510e-03,-9.796982399003489661e+00
-2.617366126764693237e-03,-9.781728024359096288e-04,-9.795433214981621006e+00
-2.027098049444594867e-03,4.612234393677651888e-03,-9.787443194968089344e+00
-2.231735024422882815e-04,-2.882978341989914269e-03,-9.796530983105855128e+00
4.009197178136882783e-03,-6.838489318645077884e-04,-9.793884860472765297e+00
-3.106659043869709411e-03,-3.167314714777210577e-03,-9.791567110205717128e+00
-7.780753479412327173e-03,-4.358017505890285880e-03,-9.794632367151857366e+00
1.693367203441643615e-03,-4.481298968835369448e-03,-9.795929903625186341e+00
-9.977223102573657375e-04,2.270332338982260570e-04,-9.784361625505468396e+00
-3.346882874162135282e-03,6.758546338327050228e-03,-9.796717932248492744e+00
3.906359082369049822e-03,-3.052273648347757738e-03,-9.793682338289750433e+00
-3.200152132104502629e-03,-4.793443881209349944e-03,-9.789819474255525122e+00
-1.151720482225941590e-04,-5.943751856231005090e-03,-9.789990969924614816e+00
1.449911133345319417e-02,-4.549126458094302633e-05,-9.784551007677199763e+00
-4.529128807905816352e-03,3.181500488341685098e-03,-9.793704861284423302e+00
1.319620673251531429e-03,-2.619846089558976882e-04,-9.791878300730054718e+00
4.590364428473456791e-03,-4.565130813950562475e-04,-9.807518135531474002e+00
3.510452002316435949e-03,-2.963144153042679245e-03,-9.794781903303466208e+00
-4.897102903183918679e-03,1.271241218999123084e-03,-9.793132637380583816e+00
-2.132683712038562027e-03,-6.448636959045029801e-03,-9.793037943353995800e+00
6.850367261218856876e-03,2.378797907726807118e-03,-9.789008251130546512e+00
-2.530928192116118042e-04,-1.810489448368088079e-03,-9.799427762159590216e+00
-1.361768571003250288e-03,-1.134448283157961021e-02,-9.793069123688610489e+00
4.183959601722243328e-03,6.321136354404219282e-03,-9.800487421765836871e+00
8.118586485557076002e-03,-5.416888331111777664e-03,-9.791943104904623496e+00
-4.082194088643020802e-03,-6.745415280659868007e-03,-9.792761012553254929e+00
-4.167778261693368819e-03,2.254915971955246887e-03,-9.793924538663286938e+00
-4.900731358867703100e-03,-1.287030160636226314e-04,-9.804252992851372639e+00
2.143012951051159395e-03,4.956522084244497327e-03,-9.793886232506910261e+00
3.051911599980684092e-03,-3.380057620311662826e-03,-9.804100431000495774e+00
-4.474781980813682600e-03,-5.034310195042464558e-04,-9.794272853673433588e+00
-1.087214639036547124e-04,-5.652105592015730859e-03,-9.783339037458457454e+00
-3.275305904387364967e-03,-1.793949338535762985e-03,-9.794425055831634808e+00
-6.457128662782305730e-04,-5.724453287313729238e-03,-9.794972840257724300e+00
-1.802106477471253441e-03,2.511392899127195752e-03,-9.791028901307392118e+00
6.406617723612006987e-03,-1.498794753808647788e-03,-9.785453058355248146e+00
4.034459855919035956e-03,-1.509606028907111222e-02,-9.798278875600560767e+00
7.265793082983965610e-04,-1.699905735035914115e-03,-9.797207373972998568e+00
-1.008923497026472608e-03,3.531076369965868884e-03,-9.803552115010324641e+00
2.235997291997103998e-03,-9.010413841733471221e-03,-9.793900599780158700e+00
1.098455920910357004e-03,-5.386045568447183317e-03,-9.793659033803114866e+00
6.203277269120795190e-03,-3.174691983856399446e-03,-9.790907983356730071e+00
-9.718087069444285644e-03,-9.143389361655023667e-03,-9.795762858370558490e+00
7.952662209699751586e-03,1.840701122476026642e-03,-9.799412752396948534e+00
-9.623028261855576335e-04,7.085878432377357324e-03,-9.798278412505803558e+00
-3.213778734393258913e-03,-4.469440463180499902e-03,-9.791154573688396923e+00
-6.946649675672895291e-03,-4.448472871395050925e-03,-9.800514926732208920e+00
-2.574743748280431104e-03,7.356341799428986732e-04,-9.790280183445448259e+00
4.927672676660391909e-03,3.346280723079137452e-03,-9.789662838971985082e+00
6.234324624913848388e-03,-7.518834456122380598e-03,-9.793895358705722032e+00
8.664091193010856062e-03,1.614983114515766835e-03,-9.786199515198608978e+00
2.152082962315796100e-03,1.988077546138900583e-03,-9.794907188692080879e+00
2.507683392919217696e-03,4.364928205756585505e-04,-9.805655453189457305e+00
-2.398114302862815357e-03,2.809361509921360148e-03,-9.793652434594024569e+00
-1.961677982114095990e-03,2.418485725973525818e-04,-9.790915122221408140e+00
-5.377842666694260428e-03,6.177279426061026667e-03,-9.795459426557110660e+00
-1.238450831795899140e-02,-3.525425782661238336e-03,-9.789217556219337979e+00
-2.459391908073977565e-03,1.389473140653832125e-03,-9.790414901947281479e+00
1.213827400149182674e-03,8.926700276395997322e-03,-9.795852139902901712e+00
3.285177266758732093e-03,5.243218417416851095e-03,-9.798021574783801313e+00
-1.237845914664965300e-03,-1.066195089916655361e-02,-9.791726707001414454e+00
-4.572158841186197732e-03,1.453958549278416140e-04,-9.785989284462425886e+00
3.418759245911524489e-04,2.435030005499922053e-03,-9.796315366579456452e+00
5.424648685992071104e-03,1.264677167344337031e-03,-9.796475833666397293e+00
-4.753214464170547014e-03,-7.458980093148876236e-03,-9.798251192263478515e+00
-1.608192152389322340e-03,-1.336282621506741479e-02,-9.796003068044385031e+00
6.511611342725443993e-04,3.347239794185946291e-03,-9.788008036869296546e+00
2.924561297625520584e-03,2.441920593695403804e-05,-9.781878208826332965e+00
6.335282004586578752e-03,-2.563976043281979058e-03,-9.794558684939840276e+00
-6.181593461580279841e-04,-6.613288011860818903e-03,-9.789222449663473213e+00
-1.206768887859652542e-02,-1.450981451979189811e-05,-9.795211775418421141e+00
8.942795653057312565e-04,-4.194858563947216276e-03,-9.794714439840713993e+00
3.402126377322527932e-03,-4.022579932809503336e-03,-9.785936212656270783e+00
-1.147396834794130356e-02,-1.548345252663972226e-03,-9.787488469685595049e+00
3.620257388475671325e-03,-6.931147931193940015e-03,-9.789721232796024353e+00
3.877436375719368108e-03,7.455587846277097076e-04,-9.797742423983406113e+00
3.729127525542819815e-03,-8.207563182190702814e-03,-9.793839307318835452e+00
-1.248976859174462861e-03,-5.282382897414166813e-03,-9.797005854710446826e+00
2.906661454100549751e-03,-4.536784065312641015e-03,-9.795486269742774255e+00
-7.110294232718192449e-04,-7.330522931545736288e-03,-9.797912354204282082e+00
-3.462810193312010256e-03,-6.136152215073117054e-03,-9.784997397342605652e+00
-5.008713601369315163e-04,-2.208046383427285549e-03,-9.781536390347532972e+00
-1.443736230130895990e-04,-1.025357577149904002e-03,-9.802805907652118123e+00
-2.910603743130482819e-03,1.260402236519960395e-03,-9.792989859687878607e+00
-7.215925759695855472e-03,-1.428229242359933598e-03,-9.799874610956432974e+00
-6.894190161812290257e-04,3.615608220790236110e-03,-9.793024853198318169e+00
-8.270003366771912917e-03,7.063904495487095554e-04,-9.789070362488146770e+00
1.746567851454064674e-03,-2.298685723911585155e-03,-9.793286454743620695e+00
-1.705321758468495569e-02,1.904843190508651420e-03,-9.797990762626227479e+00
-7.020917797829913896e-04,3.125051532892068364e-03,-9.792944449726222800e+00
7.237039825857698866e-03,-6.572745745686721201e-03,-9.789953305982583842e+00
-8.316243641427158856e-03,9.792952442419821431e-04,-9.785104358849036288e+00
-6.353735926485828273e-03,-6.216218423517122331e-03,-9.796541437885139203e+00
2.625565214209174113e-03,7.128015737177249497e-03,-9.794164404939404989e+00
-2.060826623563404014e-03,-4.730027958341989462e-03,-9.792536295676418590e+00
1.212129435173925915e-03,-2.105031109792611464e-03,-9.786843224719778078e+00
6.891871194936004773e-03,4.949362404309287124e-03,-9.799304346340978356e+00
1.623573891673063411e-03,6.770569253185206027e-03,-9.790887650962458721e+00
1.900488808810266248e-03,-4.502567993758433036e-03,-9.799057049443154810e+00
-1.210343839467973226e-03,1.665895430843093326e-03,-9.795587480378147305e+00
4.598015020458126947e-03,2.534699935278578609e-03,-9.798793650907844821e+00
1.423892864091873527e-03,-7.531480460483673013e-03,-9.777263157297056750e+00
-5.618978975471345359e-03,6.561501644207199703e-04,-9.796720806747773125e+00
-5.720272382259354582e-03,6.478547337792005603e-03,-9.793820301577788712e+00
-1.106781423791226154e-02,2.573940791935170908e-03,-9.786433560748736937e+00
-3.237788636302483484e-03,1.518517957320408319e-03,-9.805711472671790219e+00
-2.066880116040150685e-03,-3.902812592533521242e-03,-9.800412228784400881e+00
1.527503095208974232e-02,-6.897978143332246168e-03,-9.800581468887502368e+00
6.944773032607870836e-03,-9.504853874742016408e-04,-9.802317569404150888e+00
1.111523653930480840e-03,1.528259530416144077e-03,-9.792840542650129265e+00
6.071634489625363056e-03,1.179592707415336953e-03,-9.793760276929189601e+00
2.980002172697511064e-03,3.077486399000301485e-03,-9.798545207755131159e+00
-5.185781025234590010e-03,-4.162332857062965227e-03,-9.786889121080642795e+00
5.035288713793569133e-03,-2.498019811087992970e-03,-9.796779470680714752e+00
-2.458942099376562086e-03,-1.111126702009490510e-03,-9.797714576244899831e+00
1.300163461708238669e-02,-2.418425321663055221e-03,-9.793571117365301504e+00
-5.569152065718304886e-03,-2.658372216867411174e-03,-9.789760445016167267e+00
-6.205443488383518245e-03,-7.362364575497186078e-03,-9.796114120569761496e+00
-2.001586798178899788e-03,-3.062302978714020237e-04,-9.799055698927457314e+00
-7.140207752998862893e-03,5.454465437216050178e-03,-9.790737899358466834e+00
-3.571083957391465221e-03,6.559980200967307877e-04,-9.791755266937196112e+00
8.480625261404741919e-03,8.430507761555090102e-03,-9.780214186820860078e+00
-1.383779954947420530e-03,-2.247592739611964634e-03,-9.798443957235752677e+00
5.488260752986445778e-03,-4.426602428311693371e-04,-9.797183868237311799e+00
-3.488174523661900436e-03,3.903084733299951384e-03,-9.790820523216886784e+00
9.467442172889617945e-04,2.191606174940559024e-03,-9.792676307737076868e+00
-1.104802043288488113e-02,2.526197754834659179e-03,-9.786222747477143713e+00
-4.100693715898598955e-03,-5.702492721832687350e-03,-9.800403440860002036e+00
-8.613517705180184433e-03,-9.451524978312038361e-03,-9.783529884646855024e+00
-1.788468375414515536e-03,3.263893822345408265e-03,-9.801179335996490494e+00
-7.202329720374639650e-03,1.794358851512216010e-03,-9.790074259866209161e+00
-5.412406306380975092e-03,1.064460006694058561e-02,-9.792868256276760164e+00
8.236081016271584038e-03,7.739794293882231412e-03,-9.793058060873541137e+00
5.892831905553512668e-03,9.516567371016394338e-04,-9.796874590931375693e+00
-3.330742693736462624e-04,-9.416548816446995360e-03,-9.796409737539905294e+00
5.939019072206436385e-03,-4.668254461707946768e-04,-9.780874488312894854e+00
1.059081968513507369e-03,-1.470585256761285792e-03,-9.791330171222130119e+00
2.974936432846404192e-03,3.554849086613902365e-03,-9.790427378325734509e+00
-2.443021688047033926e-03,-3.527563661133515174e-03,-9.782196459818459644e+00
-8.930018291447332918e-03,7.064038392304778854e-03,-9.797247476403629918e+00
-7.684489687479735542e-03,2.903477473113419763e-04,-9.788710230199333395e+00
5.039951110839467792e-03,-2.608734430837090536e-03,-9.802555438222999129e+00
4.176219870456422331e-03,-9.789616641541282888e-03,-9.796878048432263952e+00
-9.085937496057549731e-03,-8.190946804396352209e-04,-9.799190028861278989e+00
9.302560624014398830e-03,-1.492077121191378187e-03,-9.791572292011192502e+00
-6.822234134708792018e-04,1.722604488838749620e-03,-9.795539130358434932e+00
-5.684742279805864683e-03,-2.181726908642270951e-03,-9.793198445622303794e+00
-5.337120272160471128e-03,-8.692423845849258160e-03,-9.797352698319759412e+00
3.952373936969922133e-03,-3.568408047097589627e-03,-9.794770187258148297e+00
-1.029371684466124683e-02,-2.178498648859202979e-03,-9.797141659110488732e+00
3.518790477759455200e-03,-2.648131446689999408e-03,-9.784939228143665346e+00
1.277051515361538568e-02,2.991007094750874201e-03,-9.791926287998320433e+00
-9.210401941238522240e-04,2.491017023424452366e-03,-9.787396442065583457e+00
6.774421441394611922e-03,6.658535693976208245e-03,-9.792642570495273091e+00
-1.430056480683915276e-03,-1.396095278641838223e-02,-9.798447606889267192e+00
-2.529332777171914085e-03,5.693557898157175501e-03,-9.792944243149245054e+00
-2.336713323726708879e-03,5.093634418880561843e-06,-9.787075224284951247e+00
2.671385801234999000e-03,-4.765533064469332399e-03,-9.800074842263956754e+00
-3.700851477103641110e-03,-8.038731387211017071e-03,-9.791055031277478449e+00
