gyro_x (deg/s),gyro_y (deg/s),gyro_z (deg/s)
7.488127015357294580e-02,4.293578803725087156e-02,-1.129005044871895548e-02
-4.591089722102689036e-02,7.545226395085360624e-03,-1.361458998312347138e-02
-5.036354253841992396e-02,8.312468375494001804e-02,1.285924943052323133e-02
3.165391586286128711e-02,4.850298287057846353e-02,3.406875021788201979e-02
-4.521930368395877392e-02,2.140293867348736639e-02,-2.645406927207811718e-02
5.070714123672463020e-02,2.101700296912079741e-02,1.812534475390908950e-02
-6.105743025890661424e-02,-2.248737363870386904e-02,-5.550437239834240394e-02
-1.779798113872639587e-02,2.312751978880940584e-02,3.094760936042798352e-02
-4.703780044897274554e-02,-7.200849045735931153e-02,-2.637172763505981482e-02
-3.817419236986665382e-02,-1.182418001192540868e-02,-1.083751719354494013e-02
3.789735927559368528e-02,-4.241118094985951020e-02,1.549382088867074132e-02
1.496734671123328350e-02,-4.530325849241601671e-02,-3.356950338958094443e-02
-7.796964486924786060e-03,3.936447168071101343e-03,5.303205770644038586e-02
5.161814043101243393e-02,6.143018231310105708e-03,3.122184246666066983e-03
4.973607911999420456e-02,-6.677271562658361123e-03,1.631804095714898834e-03
-3.609981150656950410e-02,-1.298074505165120601e-02,-2.225194643258210370e-02
1.808267055641192209e-02,-6.295813130112956624e-02,-6.383987479477495897e-02
-4.223008559565590708e-02,-1.356302799984700908e-02,1.244356241187578004e-02
1.730235792762602545e-02,-6.957245347979054348e-03,8.275423894824406046e-03
2.201511260786653129e-02,-4.310945216362273985e-02,1.002599003234998058e-02
2.970469331493432244e-02,-3.074208282209863613e-02,-1.036567456369830685e-02
-2.958406454135570698e-02,-2.404387373916436546e-02,-4.034790688783009005e-02
5.033044570891661434e-02,1.274484732870114490e-01,4.266877827170117640e-03
-3.021254724602590036e-02,-5.137765561944604431e-03,-5.605119320284095152e-02
-7.688136740523192347e-02,1.011735203869823518e-02,-3.947811644924242164e-02
-2.028685483091010114e-02,7.873942394729394056e-02,3.153534908164939976e-02
-3.077422477787478128e-02,-5.365462470076701879e-02,-3.306370374912773885e-02
-2.693191194730651730e-02,2.137828659069459722e-02,3.699294442193703202e-03
2.267296674218451102e-02,5.696290536610792293e-02,-2.951371837711534371e-02
4.133390772551371641e-03,-7.185259165088554723e-02,-7.855095703131184659e-02
6.032911771283224964e-03,-2.512663096093853410e-02,4.699899272193370711e-03
2.181492998667832611e-02,-3.430286537633894794e-02,3.114658770732543769e-02
1.340775855286853967e-02,3.762709235356892501e-02,-5.778505400559755950e-02
-5.893146676119326993e-02,-4.267953714889176180e-03,-6.013969348400836044e-03
3.059232815744748757e-02,6.445009693955860985e-02,-4.139199218812411596e-02
1.728151098372165267e-02,-7.161663405773939506e-02,3.895762641597482617e-02
5.761310802085118504e-02,-4.960993148935163161e-02,4.434842681131799524e-02
-1.460449462592105022e-02,2.975975731587488307e-02,1.366910067537653248e-02
-8.192613226834175857e-04,-1.227791348478626289e-02,-1.000464955464133547e-03
2.051170409685997703e-02,9.197825891841491033e-03,-1.363302578491299051e-02
-2.467049573695408865e-02,2.569073663160249474e-02,2.848135260337531990e-02
-3.868839428020630355e-02,-2.524391369720577205e-02,4.157217826505338332e-02
2.896849393486944715e-02,5.035305855517764606e-02,4.014605613531249673e-02
3.322821138842841499e-02,-8.279032980061483415e-02,-6.442390258216802723e-02
-1.888357020358825272e-02,-4.729456581427119582e-02,5.879750647858078549e-02
1.000040503380886063e-02,-4.369629774405885125e-02,-1.651150979663475182e-02
-5.588635557631260048e-02,-1.482999396876303125e-03,2.124819925677791377e-02
-1.213698230419728470e-02,1.656975847507502486e-02,6.418045289735227824e-03
5.814363424145375416e-03,-3.192479944776521056e-02,4.361613378577362810e-02
3.176896327164283051e-02,-3.065581452193848547e-02,8.088667691999881781e-02
-3.244208500995378330e-02,5.238037072366633767e-02,-5.946514877070063071e-02
1.894214876455982063e-02,1.617440185216297704e-02,4.577761434219836112e-02
-4.881087334473439843e-02,4.198824412070243511e-02,-3.940199052361038207e-02
2.503919518697692373e-02,-6.141886678375560460e-02,-7.431033437910120575e-03
6.289669152902564730e-02,4.124224822884130226e-02,1.429047624792119907e-02
4.779391176690352475e-03,-3.167368983827014567e-02,3.286172448596905854e-02
3.534266120667879651e-02,2.683803177399583795e-02,1.900672178083787902e-03
-5.255504584424003367e-02,1.078015115368387809e-02,1.023480953818670242e-01
-1.556466547565878329e-03,-5.302138445840099551e-02,-1.093205273474531641e-01
-6.398251193000090153e-02,-1.084623953835164682e-02,8.586545341278980017e-03
6.048280081550624389e-03,-4.321736557406399837e-02,5.450906358932933182e-02
-1.879132228165406038e-02,4.846601880276630095e-03,4.157517724313441153e-03
3.280447995419322194e-02,-4.180671171651274137e-02,-6.604474383930898293e-03
-3.135935695246034466e-02,-1.526100663343932934e-02,1.876515516724274954e-02
7.570337555284842312e-03,-3.135497333271122095e-02,2.187233632555293534e-03
8.686015306450349527e-03,-1.715584151495268272e-02,1.206828312369529095e-02
-9.027294685857591150e-03,-2.457039897016971564e-02,-1.920697436235251424e-02
1.621103101283716610e-02,-8.476819958982455272e-02,-8.713823633164714116e-03
3.600866982088687246e-02,-6.037253309039512100e-02,7.148824225905417440e-02
-4.131850155853009597e-03,-4.165047396236428584e-02,-4.923582267985752992e-02
-6.063851005990989612e-02,3.985984243728269566e-02,1.848382930419400355e-02
2.347584973357592572e-02,2.833540590241084497e-02,7.305619000694948961e-02
4.324900915241313565e-02,3.652569609483870272e-02,5.084118550069863240e-02
-9.596254484822423769e-03,-7.939054682400843721e-02,2.594585441818149374e-02
-1.935994711254830332e-03,2.986705021346211866e-02,-3.797857597500833154e-02
-2.538482610152229674e-02,3.560905042977564189e-02,3.988264897858304070e-02
1.849837512369788967e-02,-1.619876454673028349e-02,2.913862824146081984e-02
1.373675887010621793e-02,-4.320757672385076853e-02,-2.518311604923792468e-02
1.120226004431200840e-03,2.324179942213036587e-02,2.774271216550965730e-02
-1.838207102495268558e-02,-1.444886583598000221e-02,5.205534592085523521e-02
-1.260069579765477239e-02,5.489402839512418086e-02,1.486137602226478803e-02
5.963279305778838597e-04,-4.266744665417278315e-02,4.757069462103338114e-02
2.556368640724532987e-02,-5.088359105741579319e-03,-7.734885066221724656e-03
6.323341417098082319e-03,3.036723002141454922e-02,-1.262621726998434252e-02
2.486624062350119985e-02,-1.028925446279662093e-01,5.322682780464016439e-02
9.244463182338055751e-03,-1.137617045031040150e-02,-2.146407105434748608e-02
-7.307065296033819594e-03,4.861672456721334405e-03,-3.490103982622606849e-02
-2.897817096361115716e-02,6.214395544760474566e-02,2.459002383521556589e-02
-1.538240289836828416e-02,-2.456403993907970568e-02,7.972477979617778598e-02
8.450643492298599846e-02,-5.772064139873171566e-03,-2.657034413494962707e-02
-2.177487553815105059e-02,-3.880831150249530043e-02,-1.707352995579574859e-02
1.803239831194019746e-02,-4.670269171319701984e-02,-1.578979747301257133e-02
-3.252596860249833133e-02,1.587043694224121336e-03,9.990874445596592893e-03
2.065527036408175074e-02,-1.602017228815348464e-03,5.823873060238451277e-02
7.227271183600800231e-02,-1.181519188670465681e-02,1.043576807476322144e-02
8.823202592929724891e-03,8.274755314014517471e-02,4.588534500494340779e-02
2.333793503019035084e-02,-4.926811229046012749e-03,1.691242325200212684e-02
2.309271048643482364e-03,1.349673699730250150e-02,-3.653420486548093760e-02
-2.207870055201483286e-02,-1.450598176757963292e-02,1.091346879104368103e-02
-4.258009529736513782e-02,3.058844965048022196e-02,9.572699497141172464e-02
-4.571218453669236709e-02,3.316592638628797912e-02,-4.891739169694504785e-02
7.124121605046784822e-02,1.222147046971209378e-02,-5.420956157313780444e-02
-7.221103271496714579e-05,4.055639344909247462e-02,2.117020505234692637e-02
5.805398195321085503e-02,-8.914228760007672633e-04,-6.899544588950245853e-03
1.853532189035119598e-02,2.116657388341361412e-02,1.515786886216489299e-02
1.909869605954082200e-02,-1.875607070540292326e-02,1.632753032900633242e-02
1.453950307377669358e-02,2.305156959378144247e-03,2.653352425932837058e-02
3.392136215413073946e-02,7.607420018922478322e-02,7.832248817342284120e-03
-4.274899108484905147e-02,4.983208736103833525e-02,-1.479619280614894415e-02
-4.724749521406540476e-02,4.550744135252136197e-02,7.733191076964143762e-02
3.219109736589537835e-02,1.672604655834888585e-02,2.173923951751107267e-02
-9.028545912155804681e-03,5.643932591834025653e-02,-3.972360118806678338e-03
-6.196896466841993190e-02,-2.343035866634145953e-02,6.605776110166100556e-02
1.278948182778805176e-02,-5.852237951571689911e-02,-4.225916639715102639e-03
1.022309132115909423e-02,1.079022058418452855e-02,-1.455157373629391640e-02
3.198756480949705577e-02,-2.802520210574346166e-02,-3.320707444461399455e-02
-4.701208872474314099e-02,5.072615251896653993e-02,-5.662983290109357970e-02
-5.571908230423258147e-03,8.357433824006604839e-02,1.390488341640584193e-02
-2.858860688249259194e-02,-3.388707404321317923e-02,-1.673985934171135295e-02
-5.576282658211272059e-02,-9.691470219209154940e-03,-3.336798011536455579e-03
1.215371924102095352e-02,3.404758313802582793e-03,4.601857432673164827e-02
-1.437954315016228349e-02,-4.586725654466475288e-02,-4.448838192954313042e-02
1.384147599397508909e-03,-5.322329061845482850e-02,-1.122519395274443679e-02
1.629878745526866859e-02,-1.761952921345133483e-02,-4.322550318835045174e-02
-3.368737651475144090e-02,-2.955477781003411006e-02,1.393720639041713498e-02
-4.858518844034832862e-02,-1.360281638275802514e-02,2.715944015233500916e-02
-3.479888722100198117e-02,-2.436033462049284025e-03,-3.400992013389999430e-02
4.946742969593878603e-02,-4.604602213534788116e-03,6.976340087853205585e-02
-3.775659275086973299e-02,3.073122243442512683e-02,1.726345634916521751e-02
-9.188646202218751780e-02,-6.771445520365536970e-04,4.690593230340367459e-02
1.843756732400661166e-02,-9.243947379430018929e-02,-2.405750344450676564e-02
6.602517880127946326e-02,-5.324553919297581733e-03,-3.734767861358094521e-02
-2.776340860717632641e-02,-4.016220615424155246e-03,-1.497240847097387056e-02
3.728226249580712803e-02,-7.696888449375192259e-03,1.810834542245470108e-02
1.067805839360112460e-02,9.440208111375922306e-02,-4.217906348022131685e-02
-4.161157451420733656e-03,1.284053584066101100e-04,5.541108532327501668e-02
4.730972279109095513e-02,-4.221637137781219899e-03,-4.323972954326207874e-02
-1.084171912419719212e-02,5.171329553700247661e-02,4.161483437394644658e-02
-5.047605369834851086e-02,-3.091695283394699928e-02,-7.699756597857025479e-03
-1.381041680590616542e-02,5.100170117013053811e-02,3.138478522449936192e-02
-2.923794419448653634e-02,6.204074368118343841e-02,8.528949094427994149e-02
1.328833607203576015e-03,-4.351070884016304020e-03,-3.036205478190408323e-04
-1.384405655789721799e-03,-1.496895972691232417e-02,4.129335048525620971e-02
3.148689009807861816e-02,5.902295685949680154e-02,-5.687547945588526666e-02
-3.827396882305755116e-02,5.015521855767516440e-02,-3.357807686438504802e-02
-3.605275015916288572e-02,7.148176035038789587e-03,2.364404981483577556e-02
-3.111491722191303804e-03,-5.458647786242584732e-02,-4.669149216405202307e-02
2.404483667142896797e-02,-9.442545338269990249e-03,4.582893107004199114e-03
6.873746038871943187e-02,-1.980844880046784412e-02,-2.592011174169421561e-02
-5.264193757437243132e-02,-3.911454645588722211e-03,-4.833094065111903301e-03
1.512045192212697030e-02,8.653945977793829972e-03,-8.316824687425524928e-03
-5.861013176410612840e-02,6.276726253168155023e-02,-4.098643112556272367e-02
2.155493669952276297e-04,-5.075163731624503932e-02,-4.121584240110496428e-02
4.118205129403632037e-02,9.521338846737822936e-03,3.132969233569268819e-02
-2.421195057242674087e-02,2.601184810941983491e-02,-4.927187759344327234e-02
-2.173850171022043490e-02,-6.396170181383029757e-03,-5.691840156948490409e-02
5.940928922458011546e-02,-3.390084305288069977e-02,-4.585862977287134823e-02
2.047732092430934459e-02,-3.079732003773799805e-03,-1.437668350320232651e-02
-1.049737347507379709e-01,1.389612697730697143e-02,2.513538169812859491e-02
5.183307226348893293e-02,-4.382429355780731450e-02,-1.572028464900862219e-02
5.154698939552618264e-02,-2.410071019797082464e-02,-4.924205946105666282e-02
4.920665175867780516e-02,4.895289202565011877e-02,-1.145771808003855086e-03
-5.779515932793909128e-02,6.182519678658486562e-02,5.523954494244597002e-02
-1.437658232089752790e-02,1.737237455008570561e-02,-8.703504991145626091e-02
4.253136926763420589e-02,6.827685516563411494e-02,-5.270394084701426896e-02
-4.236758751424167004e-03,-8.491104526919271422e-03,2.426420954625481408e-03
-2.971000559505839606e-02,-8.120767262515389507e-04,-7.231823584193564081e-02
-4.638594317267133449e-02,-3.944752220038697486e-03,1.443448534129497703e-02
-3.688977055005979167e-02,3.997441031627924773e-02,1.889254268434751444e-02
1.857835754380560492e-02,-7.306295958699843274e-02,1.821690572625178986e-03
1.428778632622138174e-02,1.853564925872976847e-03,-4.180852399850956691e-02
-6.176140251151480791e-03,-5.781926647490902293e-02,2.119240076126267455e-02
-1.035655659455222422e-01,2.975804538921426878e-02,-2.029452875380709231e-02
6.636880664482679160e-02,4.954450357704916208e-02,5.411143582857774054e-02
2.725755485760347763e-02,-1.371804117481714193e-02,6.326321816770223705e-02
-4.887031071169616742e-02,-1.946395308646918509e-02,3.462207141596415627e-02
1.299434366809797516e-03,1.541248157901218933e-02,-2.989512740652833234e-02
5.332078230206352409e-02,-2.780680492650949506e-02,-3.912836816691732389e-02
3.647303638847974264e-03,2.825674343129333868e-02,-2.436903055132806986e-02
3.125653350575741812e-02,-2.593045480657539537e-02,-6.178269482231495829e-02
-6.934779893530830519e-02,-7.109562038027456010e-03,-7.853899663846182488e-02
-3.366066981710971046e-02,1.537055132791440883e-02,-2.779981879242261061e-02
1.301750396595483666e-02,3.053546421820971940e-02,2.642721858911326396e-02
2.336008411112646191e-02,-3.708535727721748443e-02,-5.456370142781349908e-02
3.217385659342898024e-02,7.252586544746116026e-02,-6.335485550623974442e-03
4.717944090930062395e-02,2.007562870892355689e-03,-9.866483727069885745e-02
-2.702353369466853686e-02,-5.067744786095289972e-02,-3.326873904787639585e-02
2.905015375716940920e-02,2.731337205384014311e-02,2.302086983006014151e-02
6.813458921320107720e-02,5.290890201631283374e-02,-5.025566105467452888e-02
-7.722413423422062884e-02,5.849012971784106618e-02,-8.128102848671410821e-03
4.739350962388475148e-03,-3.046321071794341750e-02,6.108576061337634561e-02
-7.747895839833267295e-02,1.654440967408478749e-02,9.506090524244404857e-03
5.072417173922346648e-04,4.241204267159368740e-02,-1.471648915869295865e-03
-6.620144868948921180e-02,8.455594119168716172e-02,-3.657792702442463906e-02
3.918825988993318576e-03,-1.216885694986873448e-02,-2.650158894462352477e-02
5.103520370869220335e-02,-1.144473613384923080e-02,-3.031585259860674134e-02
1.564148544996670984e-02,3.393135934777366525e-02,9.926306483117156715e-03
-1.043822494025235630e-02,4.991614440211552400e-02,6.982176120758634696e-02
-2.145771326067532139e-02,-3.351306152542735811e-02,-1.441185859563937424e-02
2.304789790330176447e-02,-2.105008683303167746e-02,-1.622195342960230241e-02
-5.984693604446973680e-02,-3.521045493731393694e-02,1.348362651578682674e-02
-4.072363221291904617e-02,-3.655992100287801944e-02,-1.747789936608464337e-02
7.114990896196274339e-02,6.627882437700874374e-02,-2.245040070456473524e-02
-2.247105255766259843e-02,-5.473846982282710993e-02,1.593343425485682988e-02
-1.072772179133469304e-02,-2.331744509693611453e-02,-1.768126344871593324e-04
-3.341080276226272155e-02,-7.239440403274634284e-02,-2.931749904790988126e-02
-4.759746899303979317e-02,-2.620621636070542826e-02,5.849392741275477592e-02
5.080860016392390460e-02,-1.885547114872858018e-02,-8.288207799967015066e-02
-4.920717358951529757e-02,3.518577110259362567e-02,-1.341038851340458325e-02
1.444833704531973788e-02,1.075189320991435694e-02,-1.836398842535834353e-02
3.743303653955187826e-02,5.611535565521961685e-03,4.012328328456223926e-03
4.794458730633537058e-02,-1.014371121650062962e-02,1.761899674155895752e-03
-2.193479182260951038e-02,-1.604211715550609568e-02,9.392883123853168481e-02
8.546329782472363024e-02,6.267781503952260524e-02,-6.176449461666303625e-02
7.448532236894933600e-02,-5.652328904942016674e-02,3.921932606651217651e-02
5.733137398746895874e-02,3.388746012291140967e-03,-1.010686852402039280e-02
4.033380436920828115e-03,-1.864210361207958985e-03,-9.360207888440714996e-02
8.140589608783135173e-03,-2.334500985354606359e-02,3.324780637098785456e-03
5.609611676546299996e-02,2.514892980851900911e-02,-6.483137238718959805e-02
7.085781655713666027e-02,-1.049141387796077504e-02,-1.289051466221416767e-03
5.431259450660680388e-02,1.103078071292185221e-02,-1.462056270503804545e-02
1.154736532929186675e-02,1.217937041778841684e-02,7.033762493496034662e-02
-2.571634412419528462e-02,-1.248139629238353369e-03,2.563157526550890325e-02
-2.014678893934257475e-02,-4.687140366404956432e-02,-8.107870171393669750e-03
3.690252043312885338e-02,1.418370308776727238e-03,-1.765916763609921836e-02
5.959380702182032891e-02,2.087748463450979017e-02,1.199182648383697730e-01
-4.708820956586072526e-02,5.710954621127825592e-02,-1.480216704311758218e-02
-2.452484590055907521e-02,2.823957933592184666e-02,-7.977109405717962287e-03
-7.144960796056796983e-04,-9.578561758179306856e-03,-3.842306098712239271e-02
-4.133897675448622994e-02,4.775393814408123577e-02,2.460201634234309223e-02
-2.338708532114993147e-02,-5.725324173998937866e-02,9.142836892614877517e-03
-2.912676498153584856e-02,2.479796659525131466e-02,-5.400540571179343607e-02
6.791781475318858785e-02,-2.549350133464763427e-02,-6.554514636550212714e-02
-1.091264491227376433e-02,-7.717496730135540994e-02,7.417728074418776865e-03
2.352171273828867690e-03,-2.212638480172921321e-02,-1.141141773078779321e-02
1.331507149586861477e-02,3.235701091353039571e-02,-1.569826383069599859e-02
6.305758952140655231e-03,-9.867359906001587147e-03,2.587026352958076911e-02
-4.760316172468395668e-02,-6.510078557331595850e-02,-9.993923905341843203e-03
-5.343702051735441105e-02,3.340631412223916269e-02,4.999501265580121034e-02
6.753646038927671458e-02,-2.121641484677952785e-02,-2.529601193253005337e-02
8.920915776501232852e-02,-1.748128209391557747e-02,-4.790499147089625348e-02
9.406874260908453661e-03,1.291478047587819866e-02,-6.221654072695263771e-02
-6.709864324562562002e-03,-7.209112770210709953e-02,5.255797199753781818e-02
-1.473900100273305667e-02,2.034477743885689666e-02,-6.051595966325503534e-02
-1.870411024523011695e-02,3.230458557733418418e-02,-2.136259560294174673e-02
4.267040341118792657e-03,-1.353586131921322676e-02,-6.022649197649706382e-02
-3.457318052680849463e-02,2.689638480370172210e-02,9.625155646342939061e-03
6.406900051922832448e-03,4.479372400849250535e-02,6.984107239163855896e-02
-1.077757562513217623e-02,-4.827698042713764875e-03,-2.974515868275987018e-02
4.638569754858185012e-02,-3.286826709205177555e-02,1.935924491146746515e-02
6.085097086288631003e-03,-2.024968257205564393e-02,1.263096594666632787e-02
2.503070906525880351e-02,5.164539682249261882e-02,-4.794945161110923670e-02
-2.358341187175668971e-02,-1.944759741746927492e-02,3.596482545301398631e-02
1.189796145956306325e-02,5.230613451910449269e-02,1.021812715582341713e-01
1.049753870855437386e-02,3.493058412228843695e-02,-1.281779456933546980e-02
2.824167177100141667e-03,1.249694069632298603e-03,-9.370195563692849949e-02
-1.888820728716720729e-02,-3.148115390937053504e-02,-2.208633863703485939e-02
1.121288080260335676e-02,2.000150934369017072e-02,-3.585840109232344558e-02
-1.254088641940697725e-02,8.731105000348404754e-02,-2.621745492526973004e-02
-4.858474840944849299e-02,-4.111629268048513225e-02,3.622754206882581457e-02
2.861362901762564206e-02,1.330038291200799291e-02,-4.366767681730818196e-02
-1.818132174339495699e-02,-6.760759297812692081e-02,-1.433592971969388508e-02
5.678720208549836029e-02,5.697420999582995110e-02,-4.480195086512245989e-02
-6.587014873239359358e-02,-6.381097463398816005e-02,-3.404975504325977870e-02
6.838787809755280875e-03,4.229110758420478317e-02,-2.043691033822396530e-03
2.658689665603148483e-02,-6.567654179436775708e-02,-5.870826070114305850e-03
-1.101766818829591141e-02,-1.439228473000108560e-02,-7.152434050926874745e-03
9.841381789701356131e-03,-1.235672866921373216e-02,7.796033943141104233e-03
5.500793297044047347e-02,3.916243181554836944e-03,-2.938872981532277343e-02
2.271595979753582642e-02,6.294139564244859413e-04,4.517059015018769913e-02
-7.323109540854031221e-03,2.748331579342948999e-02,2.171102748995507037e-02
-9.249658977162305076e-03,3.679749542173840759e-02,3.160268032652406318e-03
3.626856522084507400e-02,-3.990720827858752068e-02,-4.880101695707675380e-02
-1.062919562075175309e-03,-4.740477327576271549e-02,-1.425411761007861454e-02
4.624869169698740505e-03,-2.604431365588688249e-02,-5.380467271045805827e-02
-1.600895888838790859e-02,3.346136471277915553e-02,-3.129553873729197522e-02
3.206343949063394233e-02,3.844372417703665473e-02,6.734006833835849692e-02
5.904905891549266927e-02,4.849922168276801782e-03,3.251752156181687142e-02
3.894809273904261543e-02,-4.310053845308242648e-02,3.047305506077067211e-02
5.013082995570442013e-02,4.775346240985335611e-02,-9.121565500170914984e-03
-2.484530044552857309e-02,-1.976396137331373065e-02,-3.549682432634116563e-02
-1.467731290382323119e-02,2.929776263394509236e-02,-1.305636193913590169e-02
4.170222704513161516e-02,3.327807698251122881e-02,1.787006479163062711e-02
-6.609210558471170782e-02,-3.069989720642803100e-04,3.956196482716808904e-02
-6.599785120603686439e-02,5.284212618941187128e-02,1.736527590768244256e-02
-3.778484658141040980e-02,2.856345305218778094e-02,1.057052093362427642e-01
-2.750691363901659747e-02,6.477510663236274446e-02,-2.140703083805617357e-02
3.803108888150877331e-02,5.186182609345403247e-03,2.939454508816561826e-02
-4.433552106669100268e-02,1.129675712487162274e-02,4.995268003571030381e-03
2.933355965435501672e-02,-1.111050510907016578e-02,1.487575925132269411e-02
2.653166856984688973e-02,-6.966212528634931067e-02,2.599559453552786024e-03
1.299940797244021617e-02,-1.643280612788957165e-02,1.813576688405466736e-02
-1.967456294176493647e-02,-1.958336179148160994e-02,6.621610124480641069e-03
2.883722611054969492e-02,5.508813137202608901e-02,-6.989571823137527562e-02
1.134376404233032251e-02,-4.270921093681748215e-02,3.537179267231349566e-02
-8.603874369942492509e-03,-1.995512704147120800e-02,1.076959312875683944e-02
-9.704655916955534471e-04,-1.116210823957467652e-03,4.973540835068276239e-02
5.195856963990181515e-02,-4.695743651852679959e-03,7.079582167524805722e-03
-9.268423446207700589e-03,-2.962780229268771950e-02,-1.933537382723306275e-02
1.300857796064730162e-02,-2.338509898430914113e-02,-1.035382211772109019e-02
-1.382003793427872759e-02,-1.947821026345701936e-02,-7.240018364136754578e-03
-3.374697851466160886e-02,1.032838596681265840e-02,-3.409295019783206010e-02
-2.786425025353032534e-02,2.782798321360723318e-02,-1.052383539733032364e-02
1.935207038750898917e-02,4.002761083958524674e-03,1.343455809810352973e-02
-4.258577544387690678e-03,2.563097271159267901e-02,-5.281281060040573377e-02
1.893269579723120058e-02,-2.624046612518667054e-02,3.243342799733432008e-02
-4.703422978623945233e-02,-2.780632408160165284e-02,-7.252573083738640680e-02
3.078509944858558861e-02,-9.289026931452264851e-03,7.704290119946123269e-03
6.449218565015445506e-03,2.907108673356324433e-02,-2.152460074018248265e-02
1.767304452052520340e-03,1.921799545357347899e-02,2.554424131884907787e-02
5.510034425651139101e-02,-5.398928178520114723e-02,-8.394516589537298623e-02
3.064214107450551755e-02,5.939847218234939330e-02,7.546814756516484653e-03
-3.011413326207136240e-02,-1.075381737957456160e-02,7.109393098407598699e-02
-2.736000715331229557e-02,4.464291272790740783e-02,2.187649907492764806e-02
-3.886748122391607899e-03,5.353466941262060436e-02,6.392523161512021768e-02
2.035847528067340553e-02,-3.370511263503492977e-02,1.640780341592250682e-02
5.388303791344334348e-02,-2.477213972965612229e-02,-1.646065142654456678e-02
4.660549204928416539e-02,-6.894554439927952361e-02,-1.805086220450152074e-02
2.285848811429863278e-02,-9.119824917246757701e-02,3.077325675554028542e-02
3.701056768244745387e-02,-4.072685215726967733e-02,-4.440597058122513346e-02
2.451578857164338210e-02,-6.002503572609105276e-02,3.027654522595817077e-02
3.034866922178813126e-02,1.092354213672061883e-02,6.699419014200454214e-02
-1.024738947928076210e-01,-1.599565909501957442e-02,-5.628095937625481049e-02
2.652241460593515038e-02,-2.222844084039169582e-02,-2.472225443629083932e-02
-1.573734508750697370e-02,1.348730631408446429e-02,-3.226369979456236714e-02
-5.215791466263040160e-02,-8.195277185778532258e-02,8.263579802735052104e-03
-2.242952095613725064e-02,7.290730233317011151e-03,1.007122114069676500e-01
2.439586653769348218e-02,8.285087281053081856e-03,1.389301056513107813e-02
-2.847899323713358813e-02,1.830766579946579292e-02,3.773435070448973028e-02
7.877969287779736096e-02,7.782169829972798714e-02,5.738757449314050435e-02
3.450430921064426282e-02,-3.533762340356648435e-02,2.609785560915452510e-02
-1.931593514447986840e-02,2.979434004628148808e-02,2.606905643589115321e-02
-5.486390996936751918e-02,3.006364927431614403e-02,2.522801720397934572e-02
5.318824521484494250e-02,4.629637963798401146e-02,-1.940295726449578137e-02
6.305060974032938859e-02,-4.795549764378454621e-02,4.775796453520844698e-02
-1.222779240061277854e-02,3.416694502000384298e-02,-3.288923333307358643e-02
-3.327350896170051808e-02,4.157480656358786969e-02,-4.741734760819413946e-02
9.901487138236537977e-02,-1.623634053270747377e-02,-3.416256150550317765e-03
-3.274943232053988823e-02,-6.500091631150248239e-02,8.139993436654334100e-03
-1.234775265711628330e-02,1.108125353548876889e-02,3.858134556229732975e-02
7.947562184708485689e-02,8.503108208381214561e-02,4.991076945146955685e-02
-2.638047761339753008e-02,1.404504599494241224e-02,-3.516391611900031994e-02
1.292809308215900864e-02,3.433566721219113299e-02,-6.006344334312536948e-02
-2.587151442000415469e-02,-1.425996454218313040e-03,-6.171313680417395489e-03
-4.158744801046980466e-02,-1.782197106801463801e-02,-2.058235759625516234e-02
7.770707306666485570e-03,1.456220522603786718e-02,-4.905629435643815706e-02
1.818526466701955030e-02,-3.699059645510711924e-02,-4.527431950087261459e-02
-3.931796014718699078e-02,-5.315714308817348632e-02,-6.745086874984445972e-03
-5.181984349071157292e-02,2.595770743817749082e-02,-1.773020783666031872e-02
-3.841935199638398662e-02,1.238876307332293855e-02,1.252535113937016699e-02
4.502804950253787297e-02,1.507633452912363926e-02,2.558645393665240700e-02
-7.532378112332027698e-02,1.523210535477440356e-02,-6.487327112970536769e-02
-6.931250648456585561e-02,-4.581198984263922663e-02,-5.404891992566090292e-03
1.159651594575311639e-02,-4.967868215572589230e-02,1.937763567481040616e-02
6.720322282363773436e-02,6.779206160207966111e-03,-6.560472789830663898e-02
9.249377340044181647e-03,5.214572462080310864e-04,-7.360180670104787826e-02
-8.358929105758067246e-02,6.704311251009945592e-03,-3.026146765628555738e-02
-7.828432010271806074e-02,9.264201310252045962e-02,3.492663479928502339e-04
-2.038315387962348971e-02,5.517672942550365389e-02,4.056290262681948311e-02
-2.795845392516847425e-02,-2.154176301286929787e-02,2.410319221910962526e-02
6.238736796753650837e-02,-2.220323794723851399e-02,-2.549297584724004306e-02
6.916641934648761446e-03,-1.807985659007295409e-02,-4.614278281811689392e-02
1.589527329119073615e-02,-1.934793132606017763e-02,3.667332990652028002e-02
-1.325007601198491779e-02,2.809586312623729189e-03,-4.546438646754289575e-02
4.036600223944743909e-02,1.513053971401072569e-02,1.154555710785277892e-03
1.268483635002046715e-02,-3.668399156315581278e-02,-4.664486849309507077e-02
2.365169230075169979e-02,1.078488861490595890e-02,-1.200052516374091882e-01
-1.704180244003714387e-03,-4.508246997874818668e-02,-6.567320686561290213e-03
2.354201785883371090e-02,9.352754859447141855e-02,-4.998988208526846527e-02
5.348959393182228794e-02,6.645848743966139768e-03,4.703690255187636254e-02
-6.823232863484914035e-02,-8.501760804397297602e-03,9.327556094044486476e-03
5.117099720453917311e-02,4.751899863056670281e-02,3.637209925649100700e-02
-4.531571154871803786e-02,-2.141219406311390197e-02,3.024758623070833430e-02
-4.569483760830704566e-02,5.606425968776349023e-02,-2.095581990581145415e-02
4.289735677942290229e-03,4.894962592280163033e-02,1.558388764525964025e-02
-3.923542008808822944e-03,7.984070937177903393e-02,-2.473243830040397495e-02
2.572850578018656340e-02,-1.975186485106466411e-02,6.636377270670691664e-02
2.979947026104957930e-02,-1.098684979573607556e-01,8.087575685511445844e-02
5.808088461927830154e-02,2.923211475469788406e-02,4.228793125560486449e-02
2.092183439665025110e-02,-1.317914738215185746e-02,-6.617509982946559802e-03
1.481820012022647647e-02,-1.211313202932569853e-02,-2.952495224730071130e-02
-1.221581346909090919e-02,-2.075500255547816156e-02,8.203180118410806354e-02
-2.563750222265001946e-02,1.213456505362255425e-03,-7.365086310955119842e-02
2.196459494201313117e-02,-9.137653458396776188e-03,-4.013253405229148807e-02
-3.431257541673004424e-02,7.106331599685823674e-02,-5.360852937348038749e-03
-4.083057523002535383e-02,-3.304289345027824898e-02,-6.776653087717201228e-03
1.098078018824272528e-01,4.114174620302364638e-02,-4.183757449402113193e-02
-2.954332880707709677e-02,-5.027670755524974583e-02,3.877904037006100341e-02
7.381563697281938452e-02,-7.182981803056559533e-02,-1.977518308782561310e-02
1.150434597492595683e-02,4.208293999868242125e-02,1.932859827575117082e-02
1.822900157691724476e-02,2.083269360787445845e-02,-1.715643652814995146e-02
1.509816469655251734e-03,-2.735068331911781614e-02,-1.725853021340524249e-02
2.768278403889857207e-03,-9.797978756982050896e-02,1.013448518758655777e-02
2.672361404396412024e-03,-4.830438508869275976e-02,-2.388859869856867213e-02
6.542219073703225973e-02,6.272466113326394255e-02,3.797195525251447629e-02
4.837442760440892331e-02,5.406210528501026458e-02,-3.824679840450852936e-02
-8.723941615058841692e-02,-4.943944062817968305e-03,-7.224111779526207547e-03
-1.768211661158356623e-02,-4.535216460228016361e-02,1.765455276983371458e-02
-2.365193570803099735e-02,4.039025985794542084e-02,-4.568100184283949844e-02
-3.673860451989072618e-03,2.872809668652075155e-02,3.357889862889120586e-02
3.556945389921700729e-02,5.590165391126781375e-02,3.868018867885989181e-04
-2.637142638571024489e-02,-7.833138510536831467e-03,6.602155771360793124e-02
6.237601669168769958e-02,9.636508796054041315e-02,7.149472674304453712e-02
-6.827123122488290563e-02,-2.124433354918285610e-02,4.266130877456478232e-02
2.495562128636337473e-02,-3.339172354841721257e-02,1.814668796164096293e-02
4.076584266021586467e-02,-4.705497900086497154e-02,-4.794270461061831551e-02
4.721449079252886677e-02,6.272894662368930230e-02,-3.298759803365947096e-02
2.082773689494332031e-02,1.329725482951131521e-02,-1.173295459574260659e-02
1.721586248150305202e-03,-5.218191201649002159e-02,-1.485658788833498986e-02
1.081721581637730273e-01,-4.214477664760359760e-02,3.704303732840275032e-02
-5.593934033843635419e-03,4.006695641448438858e-03,-2.923239292043744789e-02
-3.260132064150356168e-02,1.067668991857191781e-02,-3.304541083243300870e-02
-1.162912328360800052e-01,-8.581621696363256335e-03,1.641358931037138064e-02
2.796276529564262897e-02,3.869734216510507113e-03,-4.748627249840410569e-02
-1.009610381511589702e-02,-3.627463614372816725e-02,-8.017415766910623853e-02
3.317838581135792997e-02,6.167982328112003171e-02,-1.248597137823063800e-02
1.735029960531997428e-02,-2.526714101491084677e-02,-3.011088711865116466e-02
5.146370264350035029e-02,-5.785936212281434649e-02,-7.224573809899102750e-02
-1.292404604121365486e-01,2.326313631949954511e-02,-1.552287327800754881e-02
-4.704709516610315785e-03,3.590303539796296621e-04,-2.800244395927539709e-02
-1.536649124929000999e-02,3.039373153328518359e-02,-8.380037463488734795e-02
9.851107161934188894e-02,1.362962434191146606e-02,-7.062604619892108582e-02
1.215143247130996175e-02,5.490159647687270494e-02,6.398064493161631505e-02
3.968811945009815406e-02,-5.329686709634597064e-02,-3.346304101522445951e-02
-3.649090861982254297e-02,2.801713657613291719e-02,3.929558441428702975e-02
-4.530147079541226030e-02,-4.290735847194454555e-02,7.120506863425572763e-03
-1.278154426911199716e-02,-2.437802673391949865e-02,-1.317465352667203729e-02
-3.307917439391531989e-02,-3.238855510797446907e-02,-2.972343795928651666e-02
3.584740612776741997e-02,2.346280566034461557e-02,2.820946343346374466e-02
3.369327277222956135e-02,5.577389434254133825e-03,5.956590181542825019e-02
-9.217461673442928216e-02,-5.921203625020615008e-02,7.241478269130327550e-02
1.929837300839593256e-03,3.380913062241592670e-03,-7.992895244572162383e-02
-3.338374730695810311e-02,2.754430806568349335e-02,-7.057098879126336155e-02
5.215217883543144970e-04,-3.594229349611498953e-02,-5.618261992886133122e-02
-7.469958726531391972e-03,4.079372991178308212e-03,8.829044868204434862e-03
2.439564690639593400e-02,-5.596127635970110648e-02,-6.126770460791397359e-03
5.724003891622870665e-04,7.834213558035520164e-03,-1.423998037991958641e-02
4.385889975589934292e-02,1.902023676351917089e-02,-1.921224200748751151e-02
6.030738135227384222e-02,-1.276238993471587660e-02,1.081465249153088989e-02
2.921575587092190354e-02,-2.038670488504867179e-02,-2.943831472756215650e-02
-9.272336938931934752e-03,6.926720753792668661e-02,-4.575389864511374832e-02
8.376917208667949977e-02,5.115874701471526120e-02,1.117331596558521038e-02
-1.095048745757977622e-02,1.145547849508490174e-02,-3.528661527292872163e-02
-3.366517363687082653e-02,2.663271932805528347e-02,-2.381105524892015296e-02
2.121820537630862702e-02,-1.936910784220858195e-03,-4.336367861764958004e-02
5.392461636440232242e-02,3.259497508109545499e-02,-2.485981981942519264e-02
3.661441005368048108e-03,4.363367875539193863e-02,6.115247817416052251e-02
-7.116676251202710968e-02,-1.890086708023187498e-02,4.902818301344618462e-02
3.380532957244029163e-03,-4.118602573643246473e-02,7.336122073148627389e-03
-3.703502171495606787e-02,-1.987863748368621022e-02,-2.195281798115400907e-03
-3.675049705351352697e-02,-5.995020804139941650e-02,-7.306728002222472040e-02
5.262242545222300255e-02,-6.957697656268164998e-02,5.014593257217852401e-02
1.022452740196817256e-01,4.718692147828527916e-02,3.590064752601400053e-03
-4.919514501029524992e-03,1.338848426490097526e-02,5.637382730520870688e-02
2.739685401016399291e-03,-7.176328419938303796e-03,4.540923118055904817e-02
2.786373999509539692e-02,-6.244607615857122873e-02,-4.811148665073058939e-02
-1.647905120215240743e-02,2.195249282647167982e-02,1.607306312680793423e-02
-3.527680407853599903e-02,-2.953220539707682515e-02,2.523231193234456559e-03
2.692385282305462951e-02,-7.143154697292014577e-03,3.173711557331351796e-02
-4.689249411517291966e-02,-1.718231578375624749e-02,-9.833501233575934336e-03
4.080643394102171501e-02,4.074033575960409048e-02,-1.340844140418559483e-02
1.865713959196465058e-02,1.627118713364281502e-02,-8.912972215364629858e-02
-2.007999221208589882e-02,1.208924540448731016e-02,3.419412811261372115e-02
3.330363722301891288e-02,2.522337144074633664e-02,-1.353887534922076918e-03
2.771505798294318645e-02,2.648306656439776072e-02,5.819500777674204567e-03
-1.027265954519352223e-02,4.926490326968857580e-02,4.697309115466553192e-02
-5.906961114965101484e-02,1.348185688690732489e-03,-3.999518449303927914e-02
-1.823568845288338000e-02,-4.379114877779843179e-02,2.697661767642132221e-03
-2.330608816860175667e-02,-6.806322732588843127e-02,1.454127161748081445e-02
1.218506341985602509e-01,-5.079152055454730363e-02,1.723590569636667194e-02
3.524242711261141997e-02,6.187597261553033634e-02,-1.237277938078702386e-02
4.531711183699541762e-02,3.532827825964166522e-03,-8.726697811755608492e-02
-2.853016427379370668e-02,-2.736693875867879724e-02,7.092621832149072214e-02
5.491777878196208579e-02,-3.943992487724492374e-02,9.322429418579829263e-02
-2.844008015024773392e-02,8.672978818847619509e-02,2.383652235069001583e-03
-7.352609923878897398e-03,5.707537751360048511e-02,4.621724803117974179e-02
-2.783199131200551207e-02,-1.238190647762200253e-02,3.791287677021606267e-02
-3.868581146538809662e-02,-3.209294903441296115e-02,-9.499010851530376165e-03
4.749605861217044006e-02,-1.845055727209891222e-02,-5.233555443674561131e-02
-8.280068002153199297e-03,-1.517780745600660376e-02,-4.723227297643176059e-02
1.702464571120609676e-03,-2.127008637481332329e-02,-7.032304642536443828e-02
3.984008375008130098e-02,-1.032735064595148751e-02,-1.644030501179654172e-02
-1.395124369991849415e-03,3.924451667400471327e-02,4.038433732641805163e-02
3.718520938010808768e-02,-2.148403047760996318e-02,9.785370175748792088e-03
5.199775429622718881e-02,3.660782842375461671e-02,-4.094350027467202890e-02
2.446960774494559392e-03,-1.859261935224215331e-02,1.305521381942866856e-02
6.858272033684922886e-02,7.273466683127238763e-02,-2.600140284398929844e-02
6.588364849010776292e-02,-4.392234407309217326e-02,-5.313540447199689015e-02
-3.100209697242479329e-02,-3.596904937519083273e-02,-1.549829362400944460e-02
-1.064572851954790744e-03,8.814537357674711790e-03,2.005582538851301364e-03
5.592663682893510985e-02,-6.302266251483903091e-03,1.068478142119218786e-02
6.952918755275705465e-02,4.071787049960509143e-03,-5.066311549425844829e-02
-2.119807198254956837e-02,-7.054028543911217142e-02,-8.449598897066451508e-02
1.316851359798995071e-02,8.567424205586707947e-03,-5.159262897937075959e-02
5.349634702198419189e-02,2.098059180332752932e-02,3.995968746380544612e-02
-1.356408485751124660e-02,9.126826002683219308e-03,3.538885879589668410e-02
7.320327766700583660e-02,1.519741184858396099e-02,-8.043266413415413318e-02
8.050827245295673340e-02,7.704472767723040405e-02,-3.304498809812480425e-02
-2.067599029957104678e-02,6.434752861576680839e-03,-2.384069184326724489e-02
-1.573665248517262111e-02,-3.285008679926552239e-02,-4.013996958688559324e-02
-2.655860630094422289e-02,-2.856432590405736174e-02,-3.858647311426775112e-02
2.974921636655011511e-02,1.437915698040284802e-02,3.335795705165879588e-02
3.957250104207115510e-02,-4.587473789572027449e-02,2.337359615084760173e-02
6.521914291909529718e-03,6.910580901265123664e-03,5.706914393692414517e-02
-8.667477148305652301e-02,3.548447363888013184e-02,1.391656657484535015e-02
4.557919794482646891e-02,-3.306439549970505848e-02,6.998026069215701472e-02
-2.734727343476922590e-02,2.528139720107980271e-02,5.409155572774192178e-02
4.816695172658817109e-02,8.829447508476204187e-02,-1.934347274255843836e-03
-4.489814262412291507e-03,-2.940975409383230627e-02,-3.399875489740930568e-02
-7.823990291067053557e-03,6.858001780844438788e-02,3.465377289342136402e-02
3.795655041988314944e-03,-3.610181762837116892e-02,5.704850680026429290e-03
-2.906695135866500801e-02,-7.919105009987374710e-02,-3.930523716549554764e-02
-5.535943065003182118e-02,2.007890219564426731e-02,5.384008534929748263e-02
1.714516608974058290e-02,-7.954874810696840881e-02,-1.070008515700736698e-02
2.627022817267718469e-02,-1.015362579858226574e-02,6.002530148988430292e-02
3.451166344200419511e-02,5.029908545650010887e-02,7.946113034217595905e-02
3.490990891475578492e-03,9.061552556968582861e-03,4.341473672443029418e-03
-7.900927342344582494e-02,-5.188802622226445019e-03,1.029709314372676959e-01
4.855142765879744138e-02,3.453273376577241805e-03,2.564725073764994451e-03
-6.224844679967111993e-02,-9.283973320246130534e-02,9.284247817728371807e-03
-1.032743590264683341e-02,3.753610442446773249e-02,-1.867859724099927080e-02
-1.287171581657166330e-02,-5.456979004474896838e-03,-6.590529030688686840e-02
-3.608137071346241825e-03,3.230088728563137307e-02,2.232027788856763909e-02
-6.488579633516522449e-02,-6.952719703754836091e-03,2.072980493333146518e-02
3.728979123580976329e-02,-4.451309850310788269e-02,9.151731769688795743e-04
5.162088823683306897e-03,-1.209905922448428241e-02,1.216024801445813111e-02
4.039768187931076088e-02,-2.868843399417004073e-02,-1.332179976281902198e-02
-1.439601996071974976e-02,-1.102416636060454987e-02,2.503560626639969589e-02
1.018096555147481735e-02,1.629404188295436109e-02,-6.650502477800052104e-02
1.700972387528366589e-02,8.447382605547223283e-03,2.685573009899304073e-02
-2.689127247391867592e-02,-6.961620839334299940e-03,-1.342266301620953506e-02
5.084951660328916427e-03,-2.311386963915949139e-02,-2.769289124776577390e-02
-1.234712276498810962e-02,-1.038950106047001115e-03,1.795482038962760256e-03
-3.104419053096954192e-02,-5.279126369172600086e-02,5.630278329204390503e-02
4.365588170126314532e-02,5.411109477171342080e-02,-8.185843988768001789e-02
-4.234907139476031673e-02,6.041704459147893835e-02,4.488200071734313457e-02
-1.567785378248212277e-02,-4.178266586624645312e-02,-1.067585365005712002e-02
2.276578263779008293e-02,3.312483398186152200e-02,-1.681354701397355308e-02
2.209813084416709789e-02,2.748075418821060989e-02,-3.522880191942596995e-02
2.271576097563091437e-02,-5.877310355096772992e-02,4.163080752646331623e-02
7.562696781251686262e-02,-1.745289823408648425e-02,1.826986816750294715e-02
-1.642053036781872602e-02,1.768943776199259285e-02,-1.908678679224285954e-02
7.745557463638284845e-02,-4.853637768707419475e-02,-4.242585626322230991e-02
6.276406409190196656e-02,5.715206532889540586e-02,-2.129676221636240055e-02
1.955917333948803752e-02,1.206581448209568391e-02,-5.853843974212821072e-02
3.560990486519900744e-02,-3.262637488319375390e-02,8.888728972817689289e-04
3.460015824450161925e-02,-3.878059649790586288e-02,-2.436119733081600069e-02
5.496562470313907239e-02,-1.512875510370505390e-02,2.244001607922369024e-02
2.578901748241658933e-03,1.059690856821962901e-01,4.155742816100326670e-03
3.127065950971095326e-02,-4.551289600767868641e-03,3.859503874941896256e-02
-2.391037329230282990e-02,-3.430391919433535552e-02,5.007028289540898375e-03
-2.976259248138976923e-02,-8.241497944783406082e-02,-3.006472218091007023e-02
7.037843022326260856e-02,8.004320123099575857e-02,5.754803844668122254e-02
-2.689858157222338800e-02,-6.500401034148337032e-02,-3.262170795882941149e-02
2.539153703518375743e-02,-1.962623003771797950e-02,-5.996380084153057205e-02
-2.976222235502051436e-02,-2.825552520046979710e-03,9.490742091886070209e-02
1.334939939949103538e-02,-3.913804496485927265e-02,-6.847998826960989549e-02
7.883814930767593654e-02,2.205644761856605587e-02,-3.176801464486454091e-02
-5.880229697676380048e-03,-4.346235986668613507e-03,5.488943414023809281e-02
4.149260757083849532e-02,1.170725219618939245e-02,-5.548230756531354058e-02
1.726532118811267488e-02,9.179279970503094466e-02,8.776605240488218572e-04
-3.163530090481386607e-03,-4.075835426013666579e-02,7.110419189905120910e-03
3.775569941308817151e-02,2.989130778034378155e-02,9.562705999342814567e-03
-1.352443917564549909e-02,7.809250743892615088e-02,7.521405344608724473e-03
-1.177240784548646418e-02,-3.355727533777622812e-02,1.503060134155169598e-02
-1.383085589464373710e-02,-1.085007888387302805e-01,8.099855378067497003e-03
5.546657716439352265e-02,3.247122060138468713e-02,1.678852045682829636e-04
4.979372837634326622e-03,-3.214835768672089089e-02,1.058567462513732432e-01
1.022722538286672256e-01,-6.437593486479803451e-02,-4.665028378217347255e-02
8.538407380558755977e-02,-1.906579149858080025e-02,1.134511520763720888e-02
-4.890467929630492455e-02,-3.709321630021887584e-02,1.091541481186139454e-03
1.916211626260954509e-02,-1.024879796345643523e-01,-1.267342198621730816e-02
2.437624979773882553e-02,5.945615963037278323e-02,3.740253911706352690e-04
4.602232929358924390e-02,1.954961957702754105e-02,9.152331289980468118e-03
1.667808307713793819e-02,-1.489763567245200098e-03,-9.867955472620862020e-03
2.415214608255052825e-02,-3.123357094675301236e-03,-6.149877912833251470e-02
-4.588090174124457438e-02,-3.254398630395458764e-02,-1.482037893274609774e-02
3.143695049126430524e-02,-2.090693453523620460e-02,1.381446568183496842e-02
-2.119938359025708065e-03,4.879010072599417741e-02,3.638788636121977060e-02
-3.871316685164923749e-02,-3.049848339372826164e-02,-4.525714505935859999e-02
1.223311009432172074e-02,5.533220659875678210e-02,2.757460275920222553e-02
2.869603049461398603e-02,-5.165945926729187225e-03,-5.654474589687666364e-02
-2.145293572561493556e-02,-2.544584647643399061e-02,-6.448208498184823667e-02
7.858549419861238228e-02,-4.900536735337077121e-02,-1.533693108841997603e-02
-2.643416396986509112e-02,2.031425058132394976e-02,1.473475035720426575e-02
-3.210823354725701739e-02,-5.201928438162375934e-02,6.780031390276033965e-02
2.006147913042682918e-02,-6.158611902546751171e-02,-1.516042551818779145e-04
2.441793239228131143e-02,2.280807008527677149e-02,-8.633821571991667776e-02
6.487456760308969381e-03,1.712104845763231728e-02,4.489738021595975764e-02
-2.863578101360383932e-02,4.513318916750173188e-02,6.516181368628561066e-02
-6.094386736019531681e-02,9.195518103585191561e-02,2.033859395354931793e-02
-3.698233675235424595e-02,1.276012844772031994e-02,5.393188086122412128e-02
4.404396329785584957e-02,-1.134706511678780921e-01,-5.406314825567088388e-03
-6.027920197389627366e-02,-7.581511983577914060e-02,-9.656713435648511812e-02
-7.064339456789705228e-03,4.626177800525833883e-02,-7.949259332221212532e-04
-3.583701331495904585e-02,1.375495213149839462e-02,3.989018313957177347e-02
-6.937468568300901584e-02,6.900118673397194133e-03,4.015138250843008905e-02
-4.771562731585151512e-02,7.522927638018446495e-02,2.944936842383320472e-02
-2.178131710283708750e-02,2.951588612682647453e-02,-2.482120185551652675e-02
3.599238647223786981e-03,3.395217697913679999e-02,2.398943047124046588e-02
-2.316283295611208312e-02,-1.967950695132681185e-02,-1.495635616612684717e-02
1.442446466105831715e-02,8.359084607995564617e-03,-5.181246726783958478e-02
-1.002107094966307871e-01,2.114832120819808148e-02,-7.139441649488726532e-03
-5.110616749489508420e-02,-5.488095967131446928e-02,5.647809368358899101e-02
1.451722417716557779e-02,1.429860050037106735e-02,3.562358315046155327e-02
-4.574403048270331978e-02,-6.532182507868672383e-02,-3.770917714904849227e-02
3.145586107716862468e-03,-3.060503500346810693e-02,5.666251315825261009e-02
1.554506739057124991e-02,8.263454172913159423e-03,-5.106492726358086848e-02
-2.049749091373207280e-02,8.167645864044781323e-05,-2.796016751643900893e-03
-2.117197871198161704e-02,-1.978087170389984314e-02,-1.144235403730494843e-01
-8.493483819178712299e-03,-1.619455589941197829e-02,-6.992510675800620024e-02
4.738718488499180786e-02,3.263089035617963707e-02,9.174062884514522578e-03
-2.872125369912699108e-02,-3.373510891870579176e-02,3.004245413021795416e-02
-4.245710311853238134e-02,-7.356274884739040509e-02,8.093849846846402213e-03
3.843552872850830582e-02,2.005971401826777203e-03,-1.976141082887822309e-02
2.702824259000491045e-02,5.134918123890636760e-02,3.208262540386327272e-02
-4.450011705836903059e-02,2.280988240567819597e-02,1.058333429011833055e-01
-2.050601752613515766e-02,7.810065976565827919e-03,-2.677830538237975164e-02
9.834042288850024932e-03,3.220283878440566815e-03,-2.315961523745941209e-03
5.895701109063495454e-02,-5.369986107052471258e-02,-1.024002095706145338e-02
-1.623562526128023145e-03,3.714145886351320758e-02,2.687090522894054409e-02
9.749299414448792112e-02,-3.259036822102776010e-02,5.256075448139903294e-02
-1.699503911449701254e-02,2.393234423981392689e-02,-1.552966662331366904e-02
3.049105729472954829e-02,1.096684698983785679e-03,-6.076656862201641057e-02
-3.022880858288733846e-02,-1.836140883259035350e-01,-2.122347361853927500e-02
3.145295834268061960e-03,-7.719552077089002901e-03,3.991462787027209164e-02
1.046228136623080125e-02,-1.687188174916801411e-02,4.594627789922556271e-02
-3.357467014174586595e-02,4.528454531265173333e-02,-1.548679499428843968e-02
5.642669872130356284e-02,-2.997525758794188089e-02,-2.044226420801558211e-02
3.118758047229801267e-02,-2.033671496062259762e-03,2.470947614559400665e-02
3.008442434258418521e-02,-3.391779477335026688e-02,-2.912743193666272011e-03
1.089891870582321426e-01,1.189465917143173700e-03,-1.287505644129291124e-02
-1.781566928953755638e-02,5.095489389322015866e-02,3.045856069670975844e-02
-4.452052828686771380e-02,6.286632728106858470e-02,-6.806361987634454436e-02
1.291528639001983045e-02,2.711966508292485561e-02,-2.758961691093539739e-02
1.126255386748582256e-02,-4.239370707086033419e-02,5.084033298964531905e-02
-6.193152276952283534e-03,4.731300079321557918e-04,-1.552662641886538158e-02
1.523584323325666116e-02,-1.328709996053522094e-02,5.297853678563372963e-03
-1.563165395468043423e-02,-6.573267045588483681e-02,-1.484961594619409360e-02
3.310272985247527527e-02,-1.459724919027228021e-02,2.271234071178974186e-03
1.566572102140753250e-02,1.830567064733000515e-02,7.534815908889501423e-02
-5.356184925180659112e-02,5.862620207780073339e-02,6.154033611003927734e-02
-1.407946298043809448e-02,8.538211947283187719e-02,1.227976897075275936e-02
4.721530683580395932e-02,1.057948437815482874e-02,-1.682666620553475989e-02
3.227589114412892507e-02,2.885106295840924803e-02,2.558353021951760217e-02
-4.777708998491046744e-02,4.348238508591758915e-03,-1.038962525262389532e-02
1.741971368573903530e-03,-1.292689456866943573e-02,-6.795106673094895855e-02
-1.514025160651394884e-02,9.625576102766884856e-02,-1.073047271529767865e-01
-6.811607650092615929e-02,-7.805416982122026504e-02,-2.716776328000607491e-02
5.629124227367767602e-02,-2.071853268354768331e-03,4.214703139011663491e-02
-5.173200334982916383e-04,-4.201128971087156327e-02,3.595118419540021398e-02
2.837593978827414321e-02,2.780710085971255588e-02,-1.384403484054479161e-02
1.941634008934062933e-02,-1.738449571947765088e-02,4.069235624448541006e-02
2.654558649466975430e-03,-1.866410799291775419e-02,-7.279062286116905200e-02
-3.696997320262022241e-02,3.163718274337583986e-02,4.032252843330440262e-02
1.443190035646365211e-03,2.466383762381730085e-02,-5.082418100448638648e-02
-2.996193694922681672e-02,-9.281937373666561408e-02,-6.968775559990054991e-02
-2.634276666579377785e-02,-3.741353932700405144e-02,5.608704824784779830e-02
-4.644213091483318651e-03,5.089660894462123136e-02,6.125445079211200294e-02
1.032727060845533944e-02,-1.007921458965789774e-01,-3.133908053291496049e-02
-6.425545070206090115e-02,-3.505706512897981131e-02,2.087193362699649515e-02
-5.511973293149512176e-02,1.169826407631847746e-02,-2.109892942368225138e-02
-2.436030301411122936e-02,2.841253202030429373e-02,-4.394889008636305994e-02
3.492609697049617323e-02,2.690886189851938309e-02,6.642224215880117300e-02
6.433054320799968737e-03,-2.688314200768723503e-02,7.129989112083767386e-03
4.237087208370433900e-02,-7.965575677133490684e-02,-2.445287218290675621e-02
-3.072658010315385338e-02,-5.463406605782311111e-03,-3.181868101745270044e-02
-2.052206813978925751e-02,8.001294105148171187e-02,-9.115506517946530066e-03
4.421924779132049843e-02,-4.302863287623426986e-02,2.402829776084409313e-02
5.236755822086109312e-03,-4.450283333587195383e-02,-3.652114104697509051e-02
-2.439154872829616197e-02,-7.474093108309469262e-03,1.848158615650422054e-02
5.339670498102942059e-03,1.670825071494034739e-02,1.233381971642543090e-03
3.717282379956406146e-02,3.645488424402898442e-02,3.706632338899790158e-02
3.168685837878478049e-03,7.184753254749302702e-03,2.912679778114075219e-02
-5.532921993364588176e-02,-6.793520702321541316e-02,3.420356341391381921e-02
4.977582934374001622e-02,-2.886920379485859514e-02,4.186782490561086895e-02
-2.417239345186630167e-02,5.900213677182260252e-02,-5.364323350299582405e-02
2.773882412375560172e-02,2.785433194849915202e-03,-1.835562199109706458e-02
5.598142982119631850e-02,-4.225497628827937224e-02,-2.008108168157362108e-02
-4.597993918760058529e-02,4.100229926407620434e-02,2.230114352986327028e-02
-1.896681389868418166e-02,5.906085068770765278e-02,2.131627300852063228e-02
-3.715900520510779376e-02,-1.838465363818223355e-02,6.021455161723804350e-02
-3.491769157074913615e-02,5.716085173202646585e-02,-8.020283033944461404e-03
2.687650628561354463e-02,3.066186804306105657e-02,-3.420377632161433756e-02
4.532327201803198341e-02,-1.524780122813655311e-02,1.260219536038913700e-02
9.793584940917062290e-03,5.168621776285491770e-02,5.694849068756836080e-02
-4.286163353096035522e-02,2.607095491298500392e-02,3.410763161716242470e-02
1.865768398695463433e-03,-1.281252995915719249e-02,6.184159486607542638e-02
-1.298548019878856003e-03,2.576381803352101665e-02,-6.747378615791864605e-03
5.223625694870203534e-02,-5.402596264476632049e-02,-1.303901532738823039e-02
7.917035880917107360e-02,4.459219382613956173e-02,-2.845860630877734138e-02
-1.118913713525546659e-02,4.753800441429135298e-02,-4.956876924381713873e-02
6.000721091493036591e-02,5.001540120597141453e-02,-2.980941630318389990e-02
-2.636387120704595730e-02,-1.233582880751197056e-02,-3.609497892225818627e-02
-1.704348841371541509e-02,8.183304862414372827e-02,1.288033609820694175e-02
1.176358937721479724e-02,-8.983795954819276744e-03,-7.181961389244551248e-03
5.744423429090600441e-02,-4.332068285467560037e-02,7.533782589321033965e-03
4.434445866053265267e-02,-5.745484531552863539e-02,4.776984744931107862e-03
4.372106155021298485e-02,-4.811467770156701435e-02,1.998229922316442642e-02
3.543782421398378873e-02,-4.226715652477187890e-02,8.093514195541856582e-03
-1.657807614428782189e-02,-5.038188051931251354e-02,3.053097914592321771e-02
5.929960275074155907e-02,5.846407337690053517e-03,-2.211338346447772746e-02
-4.904075779689620607e-02,-1.357523316864708667e-02,3.685795645288079958e-02
-1.865233559449184370e-02,2.756522012802115409e-02,-1.430897009811627841e-03
-8.308041311972488852e-02,-3.749394797033112070e-02,1.008462984388468426e-03
-2.896142064100269004e-02,1.038230908077745519e-02,-9.299402781382425792e-03
9.465540161962056331e-02,8.412352886434658339e-02,-1.098917677184133163e-01
-1.677624073674653313e-02,2.592598076921360031e-02,4.250666824972772206e-02
-3.517047766131568831e-02,-1.787104208215568521e-02,1.085597654491817290e-02
8.104765651521637915e-02,-2.577459912019641405e-02,-4.900040383817575590e-02
1.619708896835661549e-02,-2.412581749064016817e-02,-4.497111674690170563e-02
2.630126779039563406e-02,1.025128765266801294e-02,-6.481355609328304235e-02
-3.778575068570955067e-03,2.657342478766063984e-02,3.995994578801655844e-02
-3.131131920539022978e-02,8.861843919154356250e-03,4.726626433437419728e-02
-7.402827622766418314e-02,-2.181407649644581323e-02,6.498545058929552747e-03
5.055150413828968931e-02,3.008477114403318095e-02,6.504038830691746820e-02
-2.790049586170130144e-02,-4.948138334809412675e-02,2.314826465645627388e-03
5.189311408014010002e-02,-1.958756222491272320e-02,2.150207993053274494e-02
-1.732619648213145833e-02,6.531769783312717237e-02,-1.531887857286272012e-02
5.456901730837985728e-03,-4.508468115758796496e-02,1.001334926518588353e-01
-6.505776697006544762e-02,8.143130158703510563e-03,-6.116779662702622605e-02
-4.654046587846849548e-03,7.235381414613331619e-02,-5.396482985343104000e-02
-1.072627322635075556e-02,-3.417332218786821307e-02,4.257325716919417580e-02
-3.029096006615264111e-02,2.967962742412534605e-02,3.205653242575950274e-02
-6.524120811760960974e-03,-4.424518735498233352e-02,-8.202963416405595343e-02
-1.165303808250529871e-01,1.802678595489492358e-02,3.754455947671439531e-02
7.003719530245204605e-02,-3.049571370794272943e-02,3.800402447728998961e-02
-3.262009558431998302e-02,7.125576526734260507e-02,3.240400162959354569e-02
-4.926240763656773020e-02,1.327484112283652540e-01,1.612315134303464459e-02
4.730570331376972304e-02,-7.239756810381095531e-04,-1.453118128203915137e-02
3.642979947336336816e-02,-5.469823811469152683e-03,-5.941765177786805657e-02
-8.644711501954779193e-03,-9.504892131346524831e-03,-3.241696009960141206e-02
2.779174896263916436e-02,7.802874843542406680e-02,-4.675669403216516085e-03
2.217143560564455509e-02,6.356383500043585877e-02,3.486481632374338613e-02
6.727226763695520750e-02,-3.681486159880850706e-02,-2.893353800625864114e-02
-9.175272792015086443e-02,2.392927999159234070e-02,-3.036262132860502623e-03
3.385029841332973938e-02,-1.895916867907387893e-02,1.319018452025116743e-02
1.009569964083553567e-01,-8.889653478943118636e-02,3.303871578261853657e-03
-2.213941568290514472e-02,5.319691623328318131e-02,1.633532750803361189e-02
-3.643198610084980027e-02,-1.573271394165166176e-02,-6.680229238626105015e-02
2.474732663769490040e-02,-1.207184519496598031e-02,-1.369511786079997961e-02
-3.934074551733852260e-02,4.614256888279416602e-02,-3.880500248575440014e-02
5.728976112492206729e-02,6.673835008920765699e-02,2.323798404242491747e-02
-8.679487223749093872e-02,2.552565326322267861e-02,7.850746457905212472e-03
1.954927342769581175e-02,-1.883762734739559755e-02,-5.047449833279993477e-03
-1.581640155287010810e-02,-4.165259756368306504e-02,1.688163357614653332e-02
9.755530672624614097e-03,-5.467885268949628647e-02,3.464693990267783685e-02
5.409862863509713737e-02,-2.090381869089548775e-02,6.339977845374879240e-02
2.651567022447485003e-02,3.478366686334097985e-02,-1.825060499251764112e-02
-3.635172505984923114e-02,3.218939653136994317e-02,6.061631497499691407e-02
3.454757505408383861e-02,-4.139275239281780400e-02,-8.570034311122846915e-02
3.740762317824893740e-02,-1.514671071962787711e-02,1.096842973605480047e-02
1.314958044815774107e-02,-7.447463801102228997e-02,-3.897903448316331065e-02
-2.740155424147960525e-02,6.767410380138920954e-03,4.565868988657392769e-02
8.199370690709169643e-03,-2.007744655310406481e-02,6.157927131864842502e-02
-3.510763595031556050e-02,-3.957812249437338975e-02,-2.614826401556201094e-02
-2.648613774194018625e-02,-1.514070836576460188e-02,-3.673611053096720314e-02
4.200892715894662816e-02,3.954465699463882537e-03,4.223774702460057068e-02
2.759479017290000086e-02,-2.018690322112668203e-02,2.683061812727633930e-02
-2.196280538932728066e-02,8.246256672036521296e-02,3.616580599648269029e-02
4.678860004117833815e-02,2.875033749745935577e-02,3.298005677331006247e-02
-2.187534051525034939e-02,-9.983945887135433836e-03,7.830137460565551877e-03
-2.986006368235437011e-02,7.588503250133666299e-03,-7.978708629879526296e-03
6.308682463850348587e-02,9.734988343069166800e-03,-2.264592233405273228e-02
5.877074001091203009e-02,-1.815172623282674744e-02,-1.309256418304599948e-02
-2.778245920302377381e-02,-2.114279273941055415e-02,-3.840441509774567691e-02
4.958964100069108982e-02,5.275366858797377739e-02,7.647143501671152532e-02
-2.687372200321011886e-02,-5.938855317875362666e-02,-1.171228990726219145e-02
-1.049418373909104252e-02,-5.307506749900899046e-02,-1.328902875057698038e-02
1.314245165369303837e-02,-3.989148020260611938e-02,-2.410912234470082710e-02
5.295944253606951063e-02,3.208738987034599061e-02,-8.697943132654616105e-03
-2.867849850213827732e-03,2.962282836448758283e-02,-3.087272660674464375e-02
3.527422784822301788e-02,-8.609852497474189403e-02,-5.323243885489818694e-02
7.733526155795479584e-02,3.418942928721483560e-02,-6.401944943616501467e-03
-1.143523926855344493e-02,1.043633747592364810e-02,-6.129191533464927594e-02
-2.257429104772984071e-02,-2.186092947124469721e-02,-3.034576265514677719e-03
-9.516684907922328546e-03,-3.813004480837613175e-02,-4.112636118177512984e-02
-2.424489667302898513e-02,-2.465161241489252295e-02,3.028594173330691544e-02
9.448602447921770897e-02,4.936279330216591064e-03,9.580395736461891354e-02
7.239178670154214346e-02,4.822410422164321447e-02,2.433659715467829249e-02
2.559184820766431754e-03,4.476152675379937995e-02,1.116230800994355045e-02
-6.204196811113974093e-03,-3.766406551827156807e-02,-1.076892947334259602e-02
-8.194914264645228319e-02,-7.045546625406561014e-02,7.650322540115809915e-03
-2.682639863059993468e-02,4.322002374078197373e-02,-4.559906248151270741e-02
-4.117265114645563689e-02,-7.227047834402092197e-02,2.458779190843968232e-02
5.505273768139683915e-02,2.416163399325836972e-02,2.899251055047683337e-02
-3.043020675756372140e-02,-2.557154945631502641e-03,7.622306432796528350e-03
4.634361898020535053e-02,-2.010300564513145451e-03,8.714306862484021143e-02
-2.226811199528658247e-02,5.597001875390047315e-02,1.020035169913175235e-02
-3.038471413513760266e-02,-3.585562257942781494e-02,2.952570473139402157e-02
9.317185251019460823e-02,9.060222740594865709e-02,3.745153353959757708e-02
1.194496297835792864e-01,1.506660764845743627e-02,-7.238334305477138464e-02
-2.705282047434250797e-02,-1.039096183128703638e-02,1.262668408759796794e-02
5.688841792608655829e-02,-5.690620697332166023e-02,-4.997436803560650204e-02
1.988098531588281329e-02,-6.746881261798987582e-03,5.018610369747971561e-02
2.787313120193193536e-02,1.096251385841027701e-02,-2.518388847470067957e-03
-8.790939962462086810e-03,-6.052752931772604345e-02,-1.919226266644517495e-02
-6.415401276691920507e-02,-3.739096929983182910e-02,3.898574114244980626e-02
-6.646146888039079770e-02,-3.362925916289334020e-03,2.192229987155461940e-02
4.492529066911009339e-02,1.893422906352759671e-02,-2.866909391855479786e-02
2.392687313749833344e-02,2.700957696194151297e-02,-1.107540012799933943e-02
-6.572276773488859580e-02,4.132363163565223874e-02,-3.877880559455880449e-02
-2.969580120161562781e-02,6.408325597312199140e-02,-2.748780814142331302e-02
3.968714921138244422e-02,-6.485526021923378182e-02,-5.806483412749188083e-02
-5.824016890627900511e-02,-2.331887445012068016e-02,-5.807661900714132519e-02
-7.193480892585875364e-03,2.515959420887378326e-02,-1.721171665300868028e-02
2.182235686733364436e-03,7.474255065441201551e-02,-3.633095316408979994e-03
2.934805946554911588e-02,5.307357686123684998e-02,5.754190477065679451e-04
5.802327942539235728e-02,-3.821731173345521010e-02,5.671116646153341601e-02
1.058038765661358308e-02,3.145305428273960369e-02,5.649852557170290807e-02
-5.379380128892582297e-02,-6.196410255861795058e-02,-9.979973106581335393e-03
-3.138169032059425628e-02,-3.317637418352905460e-02,-6.482032075483983025e-02
-2.837276580729036074e-02,6.536435469369923298e-03,6.128460465924765593e-02
-1.371940264297314728e-02,1.055080586514581817e-03,-5.870380354154966507e-02
-9.111099637898315007e-03,-2.741144170298098759e-02,-3.839922449336929488e-04
4.049105525311774006e-02,5.384910857809437762e-02,7.692024639430109119e-03
5.529149151517077226e-04,5.673562909758016887e-02,-3.799123089274849402e-02
-3.078275202078313566e-02,1.622597234919965700e-02,-3.977937649416974503e-02
-2.152775251127286849e-02,-2.164924321301027119e-02,-1.449989738605696014e-02
1.619090599012665971e-02,2.045355193666308774e-02,-1.981090427874094076e-02
1.028675373617906480e-01,3.264695280996961907e-02,4.079016288317590701e-03
5.169824410856350760e-05,5.042000788927879229e-04,1.707290230075631313e-02
3.728170946372337535e-02,-5.412090369531960543e-02,5.163129759676905739e-02
5.254792443135394842e-02,7.869193528176806132e-03,-3.334545835846983164e-02
-4.811510311378467027e-03,1.067613969549292829e-02,2.530781580196354245e-03
2.008695935050269429e-02,-1.082757259004268752e-01,2.917939855791281886e-02
-4.413127773797480280e-02,9.411426140111701921e-02,-4.690241869105971767e-02
4.633336215386549273e-02,1.109618457807463529e-02,-1.837913440942493069e-03
-4.197159708068144007e-02,4.998334574374588279e-02,1.131699290562783152e-03
-2.003362269332800705e-02,-1.236564229016296444e-02,-5.669493897793398060e-03
-1.765734274438005361e-02,6.853415374581472985e-02,2.148260953302055104e-02
4.056496581752155883e-02,1.840528991379523222e-02,-5.097078951421090548e-02
-3.084190121157868308e-02,-4.967077435314527084e-02,-3.092403314870777534e-02
5.526974336686383410e-02,9.619135915880155929e-02,-6.811930255923317155e-03
4.589455934364051332e-02,-9.111109979755964774e-03,5.229916366991167742e-03
4.081592200200961223e-02,2.011897524914833466e-02,-1.002740455295772319e-02
-1.381068255839944074e-02,-3.827399872010790738e-02,-6.307159882931732964e-02
3.680902495545137348e-02,5.857101376929180897e-02,-2.008208589487288365e-02
2.761957940096056510e-02,3.785545861469699624e-02,-3.476414847214479020e-02
5.153101439052912291e-02,5.942352116764467590e-02,-6.995880903102132120e-02
-6.678555153782017584e-02,-7.410748125457466452e-03,1.175017790918738911e-02
5.044407801767990945e-02,-6.034598096334695821e-02,4.763574758478495569e-02
2.963936573157641835e-02,3.920149663613136173e-03,-7.984648821631699922e-02
-8.468833347039881471e-03,-7.153099121197797026e-03,-1.040892851200642295e-02
-8.873301039497095977e-02,-7.121268720508242001e-02,1.900754640769839951e-02
6.766171506353679810e-02,-4.489268958050805086e-02,2.324555190644487027e-02
4.517435498213503986e-02,-4.172779315797437577e-02,7.787642164373847868e-03
2.975398616563460982e-02,3.722276758667499713e-02,1.472467837337644407e-02
1.922867867291426849e-02,2.095409493436709708e-02,2.374187672555852502e-02
-6.992867247860452481e-03,-1.997267402986338189e-02,-1.153454378814361588e-02
6.169206518340298456e-02,-7.302660102228221428e-02,2.806815545155159561e-02
5.555949525524946087e-02,-4.535164161570201394e-04,-3.873343825153425374e-02
-2.886278476586421476e-02,-3.526018176402705845e-02,-8.964458674860845133e-02
6.737354852873646271e-02,1.418749216838401366e-03,4.426977088824851636e-02
5.018899911910901235e-02,-2.295815243549339038e-02,-3.662435884196948294e-02
1.959392239219171633e-02,-5.517554088414239506e-04,-2.179902663409506031e-02
-6.392819105680996872e-02,2.081195715610736560e-02,9.935902406983606466e-03
4.919267632224154363e-02,-7.747731187269564501e-02,5.052803130740152670e-04
2.435822447607072574e-02,5.406512046664278814e-02,2.141453847160823543e-02
-9.624346835620687865e-03,-3.424492287959546993e-02,4.728470822183479527e-02
-2.791475429017602553e-02,-5.221918258941379842e-02,-5.248381530436532078e-02
5.045019236321838380e-02,2.201937438938740554e-02,7.111540795091592093e-02
-2.457181213958639990e-02,-5.536179789748874730e-02,9.086524699615253220e-03
5.793962407267905235e-02,6.018135220393223267e-02,3.247668213066393778e-02
3.592055584120380091e-02,2.303318837851339035e-02,-1.046117259617190473e-02
-6.718540444910681142e-02,5.262116281842555560e-02,3.349926625520455864e-02
-3.323451679536559150e-02,-4.477272119217106522e-02,2.377533721796408050e-03
6.354237896009218419e-05,3.050056994942457536e-02,5.321150688766868031e-02
-2.326157341575133333e-02,-1.897968546600458523e-02,-1.602619315849657458e-02
-3.613512482692805144e-02,2.257560615113609823e-02,2.583369657554003291e-03
-3.273274583722226433e-02,-1.581665087278866320e-03,-1.344636319314868045e-02
4.007303139384653379e-03,-3.040405434702031506e-02,6.294770122632099840e-02
-4.569287127736654242e-02,2.242306185877615543e-02,2.154073118689227989e-02
-1.005450196654371006e-02,4.750367249587601759e-02,5.322443779838024330e-02
-3.839269485990506187e-02,1.913600033292968752e-02,2.455234081703545554e-02
4.424522940121475983e-02,1.431926496409885886e-03,-6.922383959488047876e-03
6.472012164604051820e-02,-4.450484403644910242e-02,3.669919748911549401e-02
-5.184180922474884018e-02,9.921433891106326217e-03,1.944173918441422996e-02
8.059499422367203195e-03,-3.119387593376653917e-02,-5.955319370276609958e-02
6.529967270596870321e-02,1.079806643518770037e-02,-6.860851877855564385e-02
3.888755913032578004e-02,-1.417350181195330648e-02,-1.625820686513861427e-02
5.858352188923376253e-02,-5.910525035171349667e-02,-5.052612180348766552e-02
2.812936733155513985e-03,1.794051955070188886e-02,6.837887987454031868e-02
3.063643704197473346e-03,-1.006731234376027342e-03,6.854418785202482170e-03
3.119464550729859550e-02,1.442287018057906815e-02,-6.238894551170486719e-02
3.906762495447787392e-02,-8.977449087373249453e-03,-3.374277256668096331e-02
-5.441023302799545547e-02,3.749809179216223587e-02,-1.832695852815856979e-02
2.717262208971978760e-02,-2.970870561540394500e-02,3.351939202930171585e-02
-6.258355376440415119e-02,-2.806329800243945530e-02,-8.159997854297445716e-03
-5.094200952406147120e-02,-4.784798181948955731e-02,3.113298303849591775e-02
2.126057182370300752e-02,-8.023093946349259264e-02,-3.836117317834199930e-02
2.230738976735887127e-02,-1.666411657642006845e-04,2.158390842013103300e-02
3.097100081244788528e-02,-3.125956207000867991e-04,2.121778761620679229e-02
1.669952927571116685e-02,-1.335404987194780888e-02,-2.059454720493003599e-02
3.661145021812250988e-02,4.568091398138540010e-02,-2.129624978776892101e-03
4.104568087992655628e-02,1.825926532505721227e-03,-3.435542716620160111e-03
8.590676810245471973e-02,-7.944961694482860493e-02,-3.079476761333574744e-02
-1.566727658875407408e-02,1.920297354936009032e-02,3.741467457680645869e-02
-8.495151130506042869e-03,-1.144012452233368615e-02,-2.088732470177760009e-02
1.842678112920971209e-02,-6.122280441997222933e-02,-1.737251947734150606e-02
8.212443837334699667e-03,2.244507519299845932e-02,2.941170693985521722e-02
-1.039386507270753483e-02,-5.871310065084543034e-02,-7.515231893042216560e-02
5.238805310600717219e-02,-1.171363702009846873e-02,-1.242960012963282845e-01
-4.333974106308584318e-02,-3.125392023667815378e-02,-2.908995616696354730e-02
1.223357370305644919e-02,-2.981576400890065606e-02,-1.089907793401199282e-01
-6.097992815423843027e-02,-1.974927261165511719e-02,-5.973175174537467651e-03
-3.677317847105555926e-02,-7.553218291384528049e-02,-3.580677041415342154e-02
4.593512560426618423e-03,3.255811403773928997e-02,8.020606902443884814e-03
1.404449760734529859e-02,-9.452888886692067949e-02,4.991903331556552664e-02
2.352101015222650762e-02,-2.561224316735811329e-02,-2.203247386986054504e-02
-1.315961869089753676e-02,-2.420632478912805498e-03,-9.944460748953390383e-02
-1.378923084063320703e-01,-8.493538564626067211e-02,-1.102219663009004064e-02
-5.071043472211655967e-03,-4.133531449772417238e-02,1.028084628203144307e-01
1.943193095548906638e-03,-8.315800688583561973e-02,1.754795666018158992e-02
5.570941764917451688e-02,3.035901723899800397e-02,4.034181791226270491e-02
5.360698315806846498e-04,2.839775470706736027e-02,1.138696168012857425e-02
-2.803803632024209902e-02,2.605673030253118430e-02,-8.530450117419263734e-02
-2.712833045271580840e-02,-4.289301444978833866e-02,5.085154802172897615e-02
-2.582068519860177686e-02,4.873548599243681528e-02,2.714314938290454671e-02
3.221206789411996951e-02,3.035894533762693512e-02,-7.810043191958744059e-03
-8.407698197319549496e-03,-6.007155195551155957e-02,2.577084027010588963e-03
9.571430432600430693e-02,-3.668991480506275660e-02,-3.814556274189575408e-02
-7.506979845359515457e-03,8.542381193958094310e-03,6.861666533339591534e-02
2.265000327493498986e-03,-3.619462887290286757e-02,-4.059367517702806155e-02
6.862718159260472461e-02,5.783296834362049166e-02,-6.006825771408388047e-03
1.826040274620506845e-02,8.621471977882757751e-03,3.360449540780031941e-02
-2.682013791216068810e-02,3.897676253817810438e-02,4.143425294472827258e-02
2.570764690769708049e-03,-1.978379015465592944e-02,2.573002302649381179e-02
-5.805698570071724397e-04,-2.510904718497361868e-03,-3.734574343654591122e-02
-8.550964723699890080e-02,-2.940904310096569690e-02,7.210078636037704769e-02
9.656004166091411434e-02,-5.623420185331189092e-02,3.480571660890138808e-02
2.027369480433305771e-03,-3.680721572690635185e-02,-3.587390591426967146e-02
1.176637640011173394e-02,-2.282586663334662883e-02,-1.276707508497462555e-02
7.311699117699577144e-02,-1.205617284791136307e-02,5.392144668631133203e-02
4.029340121869690039e-02,2.708002468726721998e-02,6.989688954051950787e-02
1.443209429264516973e-02,5.540827733415961548e-02,1.436268022511046592e-02
6.014239013766542463e-02,-1.592731519336748613e-02,-8.397976118793942487e-06
1.857029350385901167e-02,-3.426698465894881945e-02,-2.243882752008973316e-02
2.258123369116891987e-02,-1.834520275883492688e-02,5.591287518232355980e-02
2.019229187741287262e-02,-3.138491445982660027e-02,1.103515690334998418e-02
-7.813373565391196207e-02,-1.824756150525405976e-02,7.892215266237977145e-03
3.992592997662391952e-02,-9.258450879699652025e-02,3.088154225573426503e-02
-1.144398714784728615e-03,5.889105558582655164e-02,2.730055937084233022e-03
1.231915990953599133e-02,-5.449578055645466768e-02,1.791629080250957060e-02
-2.099915586084327712e-02,2.326398630788801755e-02,-5.838181204710947425e-03
-8.365942815273771579e-03,-1.282144541245788111e-02,-3.758499323140685432e-03
1.602067795753128743e-03,-4.820862063148276255e-02,2.207892196600092644e-02
2.548079649914215122e-02,7.278402420689207564e-02,-2.457845190457996765e-02
-4.122578552022696657e-02,2.758693430277120440e-02,4.119934156906540634e-02
1.544981202195412281e-02,-1.205569291845727531e-02,-1.420770577563064017e-03
-3.352977264804465202e-02,3.584406625398658952e-02,-2.921262418173014089e-02
-9.808527462211392989e-02,-5.681450602569158154e-02,-8.683405472899978494e-02
-3.182077059935212865e-02,4.560759971795420864e-02,3.574519830353393296e-02
-3.659990208010738960e-02,-1.119365059484665227e-03,-1.045224558133907473e-02
-1.721070089100000533e-02,2.184090618969948550e-02,6.831159072564520207e-02
-2.219797182971055063e-02,6.151314923252513417e-02,-4.299836327933211078e-02
-9.362176031318504912e-03,3.159267162746314667e-02,-6.503332316385701528e-02
1.148860437392537973e-02,-2.253156490665542133e-02,-4.218088872176964377e-02
2.515608515984176299e-02,4.699920556389886733e-02,-2.857416528123088093e-02
8.818639177492489101e-02,-6.122331292038821031e-03,-9.182660872284377149e-03
-4.668175385417392548e-02,7.577795611677730359e-02,1.908835636963423718e-02
-7.842402710558322304e-03,-9.837051563424843974e-04,3.790954629300501838e-02
-1.161484138989085819e-02,-9.415147428320906620e-02,-1.630855019250347995e-02
2.045683381583557683e-02,-3.646276674117109040e-02,1.665921825221524516e-02
1.762243474864657461e-02,-9.078151804351534612e-03,-5.036346095225278929e-02
-1.902661749935571217e-02,1.095596261963632974e-02,-1.268872983290421363e-02
3.451324015489092012e-02,6.205018110266259657e-02,-2.061067767870019066e-02
1.048380355606487804e-02,-3.442560128978952583e-02,2.613883290241168084e-02
2.505597456107094140e-02,-1.578187860407656226e-02,-3.015089970672983968e-02
-5.392393509051299216e-02,5.563703370742587029e-02,-1.770801980044581572e-02
-6.869831878610188798e-03,3.960110569035785871e-02,-6.239067902232565965e-02
2.973563003787876510e-02,-4.539940364356291787e-03,1.779878481280970301e-02
-8.709929131270093688e-03,-1.740189252704485781e-02,4.654792895331995306e-02
-1.455933908863348263e-03,2.654753050169695108e-02,7.991243596855983344e-03
-2.152433761380723523e-02,-1.600774929787349490e-02,7.765576907041996796e-03
4.743788943532722957e-02,-6.279511297705690775e-02,2.428481343290934263e-02
-2.518963752633521236e-02,-4.848555421250820563e-02,2.508333500777985836e-02
-6.052421512334223846e-02,-2.230675190572954311e-02,5.321583464371259717e-04
1.994629436512278080e-03,-2.015912072390218732e-02,3.369410643320632642e-02
-2.727824482700979668e-04,-5.127393639857518587e-02,-7.959526121497313700e-02
5.173948528118866436e-02,1.443028884220096814e-02,-5.998859338184957951e-03
6.132144953828267547e-02,9.248159476523078529e-03,-2.739430110072867477e-02
1.843205394846511927e-02,5.592733212197252557e-02,2.122265329203627468e-02
8.305051754283004906e-03,8.083308114118821150e-03,3.187202132646881417e-03
-4.627737943899930956e-02,-2.735045565142367116e-02,9.933045447720882659e-03
3.320408861835477676e-02,-2.762201654963900022e-02,3.368009690133707407e-02
1.607532428334348257e-02,7.580258607478342070e-02,3.127882327088735842e-02
3.552897271014912595e-02,-3.943778117838163400e-02,-5.355985467920101883e-02
1.047297421467431322e-01,2.066864352820606959e-02,-1.237885974969053955e-02
-2.554992701054381588e-02,-1.675145302008855877e-02,7.568631277783083311e-02
4.330084128277457423e-02,-2.135767822664054807e-02,-2.365273281426695171e-02
-7.999442401844593029e-03,2.896079726814825353e-02,-5.194784218063673575e-02
7.043242908673897316e-03,-4.033448578332536616e-02,-3.789288423720411220e-02
-3.371727440177871293e-02,-7.176767507574249860e-02,3.632876143815617215e-02
5.844574990666851454e-03,-4.577479531999851387e-02,2.476400372217760215e-02
-5.231350662386333172e-02,-1.138335750483840392e-02,5.956386131752025234e-03
2.196518406776084339e-03,3.493983660931602314e-02,4.233571748817488434e-02
-2.822240031913119188e-02,6.406089604233262957e-02,-8.118848089214854291e-02
-1.223099839846047152e-03,-3.020563787719052901e-02,-1.397644974959026676e-02
-4.058506339574202010e-03,-1.071322380083080950e-01,9.715376710500855939e-02
8.014086928949536170e-02,-1.476225251785727617e-02,3.763436255285071419e-02
-4.367641844279880614e-02,4.133316549775090110e-02,-2.334063129311507098e-02
-1.778039084767403868e-02,-8.661167603066897980e-02,-2.610728996618661910e-02
4.274365281090271307e-03,-6.685274223246261138e-02,-1.338659601259560225e-02
-6.420481703214129740e-03,1.889789033935659196e-02,3.994139624875962802e-02
1.317378730713859511e-02,-2.262524570755186648e-02,-2.466467076746941753e-02
1.991365532692495471e-02,1.837112838802056058e-02,-4.662203218953973188e-05
-3.309078639484542422e-02,-2.301008079118635127e-02,8.235241374257956659e-02
3.811933834640352046e-04,-2.745915481132445504e-02,5.579925313473197562e-02
5.497765496599844523e-03,7.001815305209624363e-02,-8.053054416276590743e-02
1.595735043240331273e-03,-5.777517469572163167e-02,5.860428513983739068e-02
4.683194088039395984e-03,1.008803985789550467e-02,-5.079021416594454080e-05
2.790215087885139153e-02,-3.087777958934636788e-02,-1.898213258621476995e-02
1.004554178966530001e-02,-2.940033131179068879e-02,-1.447580305291660749e-02
2.627453460926133799e-02,-1.913941770023671815e-02,-3.980346283768360777e-02
-2.553225361700886369e-03,2.343244676149907474e-02,-9.410345261287368993e-03
2.624995388850168143e-02,1.743585745032192116e-02,5.421349561589311082e-04
-1.334967296051889872e-02,9.580169284686007591e-02,7.807273109055183624e-02
6.659723701844666444e-02,-1.020183806346732815e-02,-2.808042625915718044e-02
-3.088890444021754125e-02,6.526405440306735917e-02,2.078569659561545213e-02
-1.496317918272176660e-02,-1.053285033540111125e-02,1.169334044577478859e-02
5.116109098859952103e-02,3.202573921940125856e-02,6.792367297894823241e-02
4.516872566269842376e-02,-3.990958007865402779e-02,-2.061086520531541996e-02
4.914292608978416965e-02,2.057642857167675532e-02,7.783305934461429154e-02
-7.337535677615716900e-02,-1.316596734062649640e-02,-4.262269215144896817e-02
-7.966388551774809812e-02,1.631152710037852421e-02,6.863860789491463277e-02
-6.852608703014151370e-02,-2.644459937108885328e-02,-3.865662228074878692e-02
-1.305720249159549214e-02,-6.410908537347085115e-03,-3.315854204103827613e-02
-9.883351738899115793e-03,-2.535140286096649459e-02,3.383837966252229486e-03
-3.436045555023636410e-03,7.971571856682414456e-03,-1.047644062921010595e-02
-3.994416287647382241e-03,-1.047036662876724665e-02,-6.156802481730638127e-02
5.466873610102005593e-02,-2.796004985233697254e-02,-5.109552162368715539e-02
4.134555083009806148e-02,-1.354460733082258131e-02,-2.191255026933043235e-02
-2.514722316260160212e-02,-7.338327046122988633e-04,2.599083139401052803e-02
8.793248138747896889e-03,-5.505619314416689957e-04,1.118589837572251527e-02
-4.667565252977679859e-03,-5.014903608390422485e-03,1.077900094365889794e-01
-5.517277195730693057e-03,-1.589764842698054154e-02,3.154734975165277011e-02
-1.310002235618699246e-02,7.599490063385491712e-02,-3.763320223365946432e-02
-9.339902523841250859e-02,-6.302442935419205750e-02,1.698268488087236600e-02
-5.753585864316367732e-02,-3.865694491057969362e-02,3.226806910770828318e-02
-9.179908628163820083e-02,-1.505034777695706330e-02,2.503100057852984325e-02
-2.336236548888336040e-02,2.164395353083132037e-02,2.411005833792587410e-03
2.841515868460225969e-02,5.708244092835118577e-02,3.729783034220014726e-02
-3.294223120021744916e-02,-3.688668110901274083e-02,1.285387085788384370e-02
-2.562213889890494877e-03,3.137362011680684681e-02,-8.387124538095470233e-03
-2.763482444137874833e-02,-4.387212212301088571e-02,-6.220490631858577313e-02
4.949771964761796178e-02,-1.516727534774849583e-02,2.052321962433127644e-02
-5.140333493785649577e-02,-4.694344650802297764e-02,3.691285659637959932e-02
8.216808693094497518e-02,-1.183861628563920819e-02,3.862918025640088571e-02
-1.727055367140688594e-02,-7.418679602265200457e-03,3.329365512043187814e-02
-3.258058759506108053e-03,-1.957093911429910738e-02,4.595665878445205632e-02
-6.912660085042765523e-02,6.086873426692924506e-03,3.420578490029971969e-02
2.802946414312761439e-02,3.524385021788004058e-02,-6.659702322410430975e-02
-2.517284286290743731e-02,-8.969995135747947657e-02,-4.713534263435914529e-02
-4.992610664974995310e-02,-3.390462877081451554e-02,7.065218747170999569e-02
-2.570715550114633513e-02,-4.097107862195945721e-03,4.401065309869844205e-02
1.268820024437968680e-02,-1.307956395923151084e-02,-3.234967137160123241e-02
-9.748689413193142514e-03,8.572874120073332993e-02,-5.605639993551034261e-02
2.076541287361407043e-02,4.612784771432767474e-03,-4.725660210589970045e-02
-2.184742103420707696e-02,6.869952788709046340e-03,5.388456714436243300e-02
5.953400813898882676e-02,8.553412783057776428e-03,-7.615333661225062722e-02
4.971315145986648226e-02,-3.626255405298615953e-02,2.948866295272577903e-02
5.912584214296406210e-02,-7.718526009616054340e-02,4.094002189823488756e-03
-4.126509282379876159e-02,3.166072389535919823e-02,-7.660449956992879637e-03
3.961565689046211980e-02,1.084536640073634900e-02,-5.941032052860705653e-02
-9.422230159655405404e-03,2.376406355399799178e-02,-3.224879176689104694e-03
-2.250023767785246098e-02,-3.220815476202517486e-02,4.227935435738373188e-02
2.733283764031531685e-02,-6.101568541537008843e-05,-5.561533232169538210e-02
2.591640282031903129e-03,-1.640212547486974209e-03,3.681416881172992761e-02
3.194321043623853801e-02,-2.085924170428810065e-02,-1.699033935224950401e-02
-2.806009279436612238e-03,-4.399888616728450663e-02,3.621749267851340909e-02
-2.328302908601341537e-02,-3.584286527842041326e-02,-1.137712209735291732e-02
-5.584104608701061928e-02,-1.495090347641208836e-02,7.385110972356833357e-03
-2.449404266625933302e-02,-3.491905317051280377e-02,1.642187694027304537e-02
6.055987575032888148e-02,-1.839511610322925456e-02,-5.813764984407173569e-02
3.833684311178218312e-02,-2.518219153159970483e-02,-3.336466806648097361e-02
2.631592113860589666e-02,-4.887350656985380536e-03,1.418315773953261749e-02
-3.045393004543806709e-02,1.741935162431581391e-02,-2.246126917386462307e-02
-5.322534196234624676e-02,-5.066472244651597234e-02,-4.794775182131384705e-02
-3.819431845166647993e-02,-1.516738396711228001e-03,-6.643378717571683800e-02
5.651411028061699426e-02,3.369135812144260361e-02,2.626378501052978667e-02
-3.601575803809386328e-02,-3.266325524384559170e-02,-2.382178890747698244e-03
7.409524910405934466e-03,8.635797303962222671e-02,8.630718959199462637e-02
8.984144650336041427e-02,1.871467251023047756e-02,-8.814767356242803054e-02
3.149786005687974649e-02,-5.715727014030477088e-02,7.056602004822771883e-03
-1.089985632392527319e-02,4.936344873860935845e-02,1.456208375598509047e-02
-7.516335269263292596e-02,7.598745127791731169e-02,-9.482671354121273433e-02
2.164481520561124372e-03,-5.699272932007284215e-02,-1.784443359226440054e-02
-4.555022617432362420e-02,6.232368071688145633e-02,-1.983849627219794881e-02
2.959939685193032841e-02,4.524303323825980966e-02,3.141326330773951819e-02
1.536844974160423739e-02,2.302244613676012516e-03,-3.235230044186067355e-02
-2.525957244232600297e-04,5.368341220581639324e-03,7.017536473232811878e-02
1.989044244107052509e-02,-6.802912492931324773e-02,4.930585731932556753e-02
-7.094978645199978562e-02,-4.088446412861138773e-02,1.155172559408669530e-02
-2.393966458820790538e-02,1.595225272599769609e-02,3.013522391101323885e-03
7.443652949439025224e-02,-3.461161707487418054e-02,2.687091599290258870e-02
1.541665116699701341e-02,-9.585313326176044327e-03,1.021281637167840810e-02
-4.539893215200578591e-02,-1.711748203662288165e-02,-3.810536915017464360e-02
-4.857959190993181575e-02,-5.142599098804515045e-02,-5.681446720530459668e-03
-9.383137552409761759e-03,4.258986303575953286e-02,-4.473099796929296684e-02
-3.504140454864231730e-02,2.663719823593885955e-03,-3.732892675501409824e-02
2.271416553451526682e-02,1.866839831863969373e-02,-1.226643064783176570e-02
-3.367549698962665067e-02,2.979582072597502032e-02,-6.361559258546696516e-02
3.126581841671949996e-02,-1.443914016324546017e-02,-4.174849433981953767e-02
-7.776788855199198540e-03,2.037654922267945201e-02,-4.324204841551266415e-02
4.416021305292050503e-02,1.160037376041034513e-03,-5.488272915309047595e-02
1.059055712926840059e-01,5.484139128462177382e-02,-1.798529141878889986e-02
-2.532843691823098708e-03,-1.090218024779716077e-01,-2.424918547177489295e-02
1.715309719855047724e-02,6.061921132001385493e-02,-2.955932835297826744e-02
4.836277446296014665e-02,5.728709634842954479e-02,6.658092918513057457e-02
6.283446345975614300e-02,-1.635606541464858579e-02,-8.592815291272345828e-04
5.733806026248321891e-02,-3.907341902594285016e-02,7.989387795775744917e-04
-3.080548353630438094e-02,3.811364148020185416e-02,-1.183457636464310160e-02
1.258741978156222713e-02,-1.868537453945193910e-02,-1.780333775033254504e-02
-5.527860604918662102e-02,-7.879559853407487602e-02,1.983538686934554780e-03
2.921178254648692033e-02,1.008917947246387448e-01,-1.744891888368849814e-02
1.046140520658800366e-02,-6.102549870559648149e-02,4.864363496786832525e-02
-1.638744954260483704e-03,1.763582781314696965e-02,-3.396234073617082627e-02
-4.578680418766053854e-03,2.420156937390247585e-03,-2.106221134463198089e-03
3.780964059123563623e-03,-1.792806478806636614e-02,-3.408898121920771185e-02
2.238323952239109488e-02,-2.828739744818039789e-02,-3.348432477445073552e-02
5.322146432364329577e-02,-1.109401521541682548e-03,3.494002792672372404e-02
3.270180732862880413e-02,-5.302962719919767504e-03,-9.614523997737925431e-02
2.910925182624448521e-02,-4.802950668535936607e-02,3.389861695082253129e-02
-1.520840569375395655e-02,1.740633298309793645e-03,-1.153163682539318051e-03
7.397646281691444559e-02,-4.760087583637343661e-02,2.153165163077815081e-02
-5.553387840382312257e-02,-3.061129194846066992e-02,-7.629946952496005630e-02
-1.942249280612884724e-02,2.440517576838713634e-03,-1.831558301633451347e-02
2.810829347703432124e-02,1.074544181445271154e-02,-8.753646389336859623e-02
-3.357879891664374006e-02,-6.659966173110402898e-02,3.318762623342895457e-02
-5.864299111351432836e-02,-3.141042088521518727e-02,-3.829273187903331488e-02
2.624443548408304100e-02,1.186376784590898771e-02,2.027743355489358690e-02
-4.756075322509486364e-02,2.374734481965175281e-02,4.015559815720201597e-02
-1.307770574143142170e-02,-1.225711817606521883e-02,3.781480236812971400e-03
3.676159881210976088e-02,-3.839257142580884685e-02,7.487833142523085683e-02
5.303121503872081088e-02,3.077783975998936092e-02,-3.733335151332205226e-02
-5.563903953914634687e-02,3.249535392530277650e-02,2.635953592516974628e-02
-6.715389142169275738e-02,9.076291499674427055e-02,-2.352378057086258398e-02
5.466418823212484956e-02,-3.553508893878819935e-02,2.908219493532094094e-02
2.633847398432370007e-02,1.409549579229589684e-02,7.241484228470824146e-03
2.499334438612903914e-02,1.360415115912088323e-02,-9.207856990043904871e-03
3.495413828062998718e-02,-1.857968970499088851e-02,8.388981601167102425e-03
1.290035993395020897e-01,-3.297397016855500851e-02,-9.057566159279101595e-03
-6.492422293927437027e-02,1.676440692476150948e-02,-6.284111199274507176e-02
-1.070299876783725908e-02,-9.417600307710492780e-02,-2.350328190173895781e-03
5.086030402811803075e-02,-2.415328819702868349e-02,3.019068872548774998e-02
5.436600068909885897e-02,-3.986234470037851307e-02,1.810628601851503854e-03
1.436938795162290283e-02,1.565024652562463023e-02,2.090298032206122300e-02
5.871719905053785632e-02,-1.305823233820594710e-02,8.154306438809579005e-02
2.570486473118521395e-02,-3.905589772738420756e-02,-2.845545787727011763e-02
9.794559490054751544e-03,-1.306710433327470597e-02,-7.316951196473492347e-02
-2.283405688076328016e-02,-1.132889326467130184e-02,-4.313681996715937328e-02
-2.523262886574783107e-02,-3.296184961321736717e-02,3.746579978985039444e-02
2.362904252784888554e-02,-7.253914249009671585e-03,-2.736656267505342167e-03
1.484295236864154738e-02,-4.927474195721182060e-02,3.201250892497718714e-02
-3.837992255751179489e-03,2.459009639278713494e-02,2.970333372953684603e-02
1.397318996206908977e-02,6.383329492052741694e-02,-3.265333666507791444e-02
-1.791742687259705730e-02,-8.600214282908658081e-02,-2.549528006006374775e-02
-2.970624015939772253e-02,1.124647424499961024e-02,4.898943418367904777e-04
1.123643552301000631e-02,4.065284593394447032e-02,-6.111317348327931914e-02
-3.166389281383018284e-02,1.621436526197887751e-02,2.403432632951539236e-02
-4.246760471750725408e-02,-4.508521093872564639e-02,2.561019777198222935e-02
5.458246905721381506e-03,1.005048922549755738e-02,-1.846024209924782000e-02
-3.174074700280320096e-03,-2.780196475205739398e-02,-1.112002245378139464e-02
7.501699053033578091e-03,1.740683492378868741e-02,-3.230009185450048725e-02
-2.249359031976866288e-03,-8.469493406349973275e-02,3.636503169159099186e-02
7.306042740588036821e-02,-3.019851991877765818e-02,-2.188219425793202014e-02
4.723313151212310546e-02,4.317416507556456201e-02,-1.944821053968346508e-03
1.068393130060406315e-01,-1.557204074679680375e-02,-3.038746650641323266e-02
1.177606993249627823e-02,-5.607862054663290304e-03,1.784757010107275096e-02
2.259953314267129643e-02,-5.063819654193257511e-03,6.898395869601883779e-02
-4.293603896322606417e-02,-2.820528455226966463e-03,6.524751414136528704e-02
9.565586183197857112e-03,2.472206340697851584e-02,2.718866836055955274e-03
1.507025690296529691e-02,7.684924317410729566e-02,-3.557560386104084704e-02
-7.205749520656692941e-02,-5.658890816976284120e-03,1.212553711216476059e-02
-1.470433715621316875e-02,1.917149149427293739e-02,-6.115955469084424778e-02
2.855331405606648110e-02,-4.220880097932097619e-02,-5.338773257003643496e-02
-4.699656942588870817e-02,1.495151568616617972e-02,-9.906703017605966374e-03
8.800257023467629447e-02,5.943510987611572149e-02,1.961033089380766897e-02
-5.788551083867020386e-02,3.707711187129554553e-02,1.442201597654074741e-02
3.314328805755783341e-02,1.650543627523450713e-02,2.041855213882022221e-02
-2.143373069256105864e-02,-3.247627487779643912e-02,-3.724124801305830207e-02
-6.951125408101656300e-02,-2.139475990161436580e-02,-3.523706895940929840e-02
2.879980598018310953e-02,3.654071037658557924e-02,6.290945170696982114e-02
1.245650410496513399e-02,5.289642923919741363e-02,6.188494986972280926e-02
1.015735321695611718e-02,-5.864944088625903551e-02,-4.066258516851267019e-02
-5.821201418424447327e-02,9.878009866478906081e-03,-2.835622933309412882e-02
3.014996452142270147e-02,6.425625218467578836e-02,-3.261868087134277977e-02
-4.838807732842039661e-02,5.610250782631621622e-04,-7.047729358148029088e-02
-1.400142688562620516e-02,6.571034471238988706e-02,4.904448506567137683e-02
-9.599907019977227743e-03,-2.960538850000641112e-02,-3.832020645624244215e-02
-3.569007942012433765e-02,4.500701387651889068e-02,-3.256390961676344786e-02
7.224318194627971090e-02,-7.188143189888482679e-03,-2.939184216814996753e-02
1.546948302620109253e-02,3.227655306357347931e-02,-8.073028110923284595e-02
2.582550080627547817e-02,8.362975204604418400e-03,-4.212991282359023447e-03
-2.185120820533844460e-03,4.626927195221927462e-03,6.185531595116794401e-02
9.772369351187072672e-02,9.075422955876931430e-02,4.023037901163588337e-02
6.628550133053268123e-02,-9.117875434671353710e-03,-7.513890382963533954e-02
-6.479129372794729946e-02,4.751737494935816090e-03,-4.148337233195720231e-02
3.358735727196775905e-02,-7.439380666535572173e-02,1.916121056347602769e-02
-3.172579557589926685e-02,-2.083535962482289602e-02,5.889457356014188294e-02
-3.733220397201099383e-02,-4.568317164561343235e-02,-4.883212875228643002e-02
-3.960078724449284798e-02,-4.102141997211478791e-02,2.657289291584667701e-02
1.601759546524943872e-02,2.970568533390730709e-02,2.333520611219486597e-04
-4.311678751621885602e-02,-6.523847872752706889e-02,2.477257689165405022e-02
8.149792086472390507e-02,8.612455901902999963e-03,-3.007511444342420015e-02
-7.071125623805464555e-02,-3.026951218757775730e-02,-5.775031644534678321e-02
-1.721882253157810613e-02,1.074182346225054097e-02,5.656633788894083886e-02
-4.440948534370536133e-02,7.213283811868859141e-02,-4.128859315879958997e-02
7.073654235133827739e-02,2.993576055865115534e-02,1.886965196561253208e-02
-4.194920087678708463e-03,-1.111232206037801942e-02,4.410489758338132643e-02
-3.180329228654262680e-02,6.576917182040313559e-02,-8.349654004847795533e-03
-2.311512610262907511e-02,4.583620209090158437e-03,-5.577872621838541808e-03
-1.421574945716579975e-02,-1.324779625583540413e-02,2.648678019219355417e-02
3.977382770459846062e-02,-3.525957727369412320e-02,2.054998666610926422e-02
1.032465612277119922e-02,-9.161506250419274022e-02,-6.032970720596086273e-02
-3.182088274247884402e-02,-3.136812994860752740e-02,-4.350307834361609623e-03
4.551829942284152386e-02,5.427691907048717151e-02,9.193862050228160734e-03
6.836918154159055128e-02,-1.610658793458272231e-02,3.774848549094541022e-03
5.626844680356922479e-02,-3.113458734459941327e-02,1.481839237002039247e-02
2.236296155246134121e-02,-1.842527586524599775e-02,3.862724612173101119e-02
2.565122008199021732e-03,-1.402488704318991322e-02,-7.151963209141318223e-02
-3.397154200421397680e-02,-6.781298681132474915e-02,5.019142031797764469e-02
1.504666253190831485e-02,-9.204054655372448726e-03,-1.392739652989618410e-02
-1.532599420066211270e-02,3.800990391747637032e-02,4.102014080975711907e-02
-2.950572652185758787e-02,2.493518051915535189e-02,-6.526689941315926696e-03
-9.944059798901892788e-02,-5.894381816743436524e-03,2.246911456662879086e-02
2.240160074037033516e-02,-3.804298516124608037e-02,9.628337498041517062e-02
-4.968582297504334916e-02,1.770497391210420352e-02,-5.048182674778805418e-02
2.216303069560969854e-02,2.004362901232914843e-02,-5.604739975748490588e-02
2.962025942857416522e-02,3.623219261749342779e-02,1.629804973053382983e-02
-1.057388371864797887e-02,-2.162562141522014064e-02,3.813106321713120861e-02
6.089669505594077700e-03,-5.689480115854486653e-02,-1.534080252727601859e-02
4.798778656247500857e-02,-4.309900099133979340e-02,-4.872666676598413210e-02
3.221464557424233779e-03,8.703516040573610994e-04,-4.433734413787223522e-02
3.600644740760512025e-02,-1.229200997846869323e-03,-1.248050863451318077e-01
-2.545160099441081888e-02,-1.043072594626420421e-02,-2.240229219382288209e-02
9.839107604019495246e-02,-2.330797054558696180e-02,-2.249550402101301375e-02
1.099040539390235827e-01,-1.879325311579677776e-02,3.237566795449811630e-02
1.072441456950096184e-01,-1.754120278950753800e-02,-4.045037425246564289e-02
-1.694953110157149806e-02,-3.641202151347588956e-02,5.067709188783009293e-03
-3.783020904241334026e-02,-2.251683153278055682e-02,-1.768098498035166818e-02
2.669948179632102361e-02,-5.589785899121010870e-02,-5.230013468623717632e-02
-3.882156986510667401e-02,-2.071214057701723996e-02,-3.887352577197178242e-03
-2.150447124505267676e-02,8.851938009394476337e-02,5.887063148534872614e-02
-5.432278360956391272e-02,-3.788674746574678676e-02,6.481250551545433489e-03
-2.307241103960654474e-02,5.180968104264847829e-03,5.453429294965579655e-02
2.195565484797515343e-02,-2.843000171411625213e-02,-2.922254959953034942e-02
3.659886683207962121e-02,1.015812059687148071e-02,7.376996645692632248e-02
-5.498820521529852040e-03,1.083025753120295948e-02,-1.567760899141838749e-02
1.065228982772604277e-02,8.851988361997013832e-03,3.226940730500842298e-03
8.785754931889915020e-02,-4.704722528646472501e-02,-8.020259047836421351e-02
-3.630728950353567103e-02,3.470953337751069706e-02,-2.739420086877807775e-02
4.291559607524050857e-02,5.919545085573339055e-02,-2.878126733500007209e-02
-2.342313797415515250e-02,4.140109253489672458e-02,-4.451801458066489275e-02
-4.214565372253462408e-03,-7.700926505871488748e-02,9.753167491065391562e-03
-3.475719273190388398e-02,2.769583504584514216e-02,-5.874333983054334796e-02
-3.311059116192362206e-02,5.096484221874680864e-02,-3.023624843822352720e-02
1.878876054567815007e-02,2.013504511566303543e-02,3.089212630476004945e-02
6.635205096413525350e-02,6.509182656592248095e-02,-6.484693968264032549e-02
1.649820633424028266e-02,5.556436329205172164e-02,-2.442464168899279031e-02
-5.628167283748888861e-02,8.270330360606541198e-02,-5.141616378732830756e-02
5.720224945789910247e-03,2.381655716632594816e-02,-1.931274211402266711e-02
-1.618356620447127317e-02,1.206860399755234478e-03,4.889534305723768418e-03
3.937473337257271777e-02,-3.664479711438254489e-02,-6.454637296237697441e-02
-4.198739686998324144e-02,2.174820774441878907e-02,-5.410422791784795515e-03
-3.444479710020335178e-02,2.496435132417485631e-02,-1.835682360506706370e-02
-5.064488615416881667e-02,3.616648429391591812e-02,2.487842683642394262e-02
-6.322167641565715202e-02,3.402505456047336813e-02,1.655342953109512939e-03
-2.783084386426611101e-02,-3.303473896112959791e-03,7.494225646163028831e-02
1.123609882133527055e-02,1.085086195723952984e-01,1.145378020086569061e-02
-6.079765931493898157e-02,5.224969330911766879e-02,-4.468240338393129202e-02
-5.636488317407850612e-02,-5.295635436966842496e-02,1.645192743599191779e-02
-9.799398304274772875e-02,-7.286778633441730324e-03,-1.899670446891901093e-02
-7.313495790759920456e-02,2.253047681919540315e-02,4.835602078746133181e-02
-7.772533672599091746e-03,8.104289430899849420e-03,5.859132335667879832e-02
3.149013890620526446e-02,-3.197326743178973557e-02,1.703523901914652181e-02
-2.659653133669655917e-02,7.826848080554037190e-02,1.258396367728233795e-02
-6.094602100022721188e-03,-9.318182859318714650e-02,7.498047162433546520e-02
4.302934753467559104e-02,3.613433892304664108e-02,4.192982527121846131e-02
3.250586453209273335e-02,1.911485158535582976e-03,-4.334908202588833720e-02
1.088341906161685232e-03,-5.049918171039282505e-02,4.310084397291396446e-02
-7.183221569566497489e-02,8.890349528468359519e-02,2.607245737541222935e-02
-2.269554440359691783e-02,-1.019427767207146777e-02,1.338564463969620366e-01
-8.425672488642074742e-02,1.166704680451870028e-02,4.698914265814806840e-02
-2.510528349317665484e-02,2.222493927281619236e-02,3.667706870075126274e-02
-8.443615528400527995e-03,3.208946434373109030e-02,-1.026914775778949625e-03
-1.802531517437541003e-02,4.655073897285497142e-02,-1.453696637809742329e-02
-1.287976312388296185e-02,2.396041972226811007e-02,-8.262340828804514564e-03
1.383210878625484516e-02,4.171273310754648050e-02,2.017319121749332547e-02
-2.235452751869942360e-03,2.468937004315599482e-02,-9.414910018596083299e-03
2.183631478783827976e-02,1.044370066466958347e-01,-6.973195645446146618e-02
-5.858759282745123337e-02,-1.236261393107316170e-01,2.282624132449980262e-02
6.093070218553865020e-02,1.927624151892787588e-02,-4.924014626804251032e-02
2.322579289368728941e-02,3.740460677268489520e-02,8.189323176126087067e-02
4.366298093473946346e-02,4.471964739103312381e-02,1.025616789448491155e-02
-2.970794293228207206e-02,-7.914824422246234670e-02,-2.449976748060641099e-02
-3.074734471005986097e-02,-6.482004458312790908e-03,-3.156557282159574984e-02
-8.231986434393652463e-02,-7.761101051393470493e-03,5.317250938400865101e-02
5.945612125222519972e-02,-3.081420557850449854e-02,-1.308553428525662150e-02
1.066357789009059719e-02,4.038701353891823408e-03,6.952969741304865225e-02
-3.205750510495045807e-02,-3.839701484949190752e-02,-1.195069591378321722e-01
-3.416923698963898574e-03,-9.021268874224606590e-04,1.007372047885283714e-02
-1.413190141491524332e-02,4.058359273032069447e-02,-4.642352720184286796e-02
-3.768169846954690094e-02,4.743209284535451070e-02,-3.820838850972470280e-02
2.314813593853307094e-02,-6.138133911710005712e-03,6.573342469454082626e-02
-7.226349678000985877e-02,-1.111842037320304524e-02,7.671420855803822532e-04
1.976531374296014790e-02,3.006225321531387842e-03,-3.304097103335819352e-02
-7.264971685278148739e-03,5.936767784748559623e-02,-6.684102025934492153e-02
-4.197781385026731066e-02,2.994636393121089327e-02,-5.489196879981858568e-02
1.381358862286218882e-02,1.273986970489393022e-01,7.414231398491992475e-02
-3.167500878886213983e-02,-1.326639190562293145e-02,-3.410391313365861501e-03
2.637125997487919926e-02,5.015539807560213253e-02,-4.640611088225435332e-02
5.665996411793308013e-02,4.504893240709882674e-02,1.239827804911557280e-01
-1.052065963898588946e-01,-3.322250773891265857e-02,-3.041911977645902695e-02
4.406103947669954418e-02,1.827192170892222300e-02,-2.243990989246771872e-02
-3.113250364088200953e-02,-6.423552744740992915e-02,1.584432778631160443e-02
-4.883226873146394309e-02,1.960511273659069648e-03,4.784329222984681079e-02
-7.027051030553491118e-02,3.196905669160009233e-02,8.435754704199792398e-02
2.542113569601698111e-02,8.864697086626945055e-02,-3.139405048470105680e-02
3.830882985491963766e-02,-6.975793209620115287e-02,3.286638262387212711e-02
5.698435564637755607e-02,5.630168779575783072e-02,-7.324039067340466780e-02
6.250742401637490731e-02,3.413984967183544827e-02,-4.739838021643656696e-02
2.523630304427868995e-02,-3.892246956878420150e-02,3.078082074012347680e-03
2.807697545373683337e-02,-1.134658228054835107e-02,-6.900531702646720000e-03
-5.347201356990762683e-02,5.180913244682869984e-02,9.827928240435388277e-03
1.163031753387794298e-02,-5.830312262436718879e-02,-6.123023453275013017e-02
2.877364267987642370e-03,-2.548855377689153434e-02,-5.359444636660042754e-02
-5.549447787764444362e-02,-3.884826194592194692e-02,-6.068143401874374204e-02
-2.102488173368393439e-03,-6.448341174379060292e-02,-2.178563073240880922e-03
-7.823404122132815441e-02,-1.934304634466345665e-02,-2.833385940890031582e-03
5.068486489839588160e-02,-4.035250051411095641e-03,4.060528703448469667e-02
7.845090914762616052e-02,-6.929637780649110235e-02,5.313577040129481566e-02
1.896323568999431011e-03,-1.535289645849865527e-02,8.005129860219149796e-02
4.326177768574462207e-02,3.826767118894335712e-02,-1.171767921245112642e-01
-2.214200835373025117e-02,-2.465259365034184764e-03,8.704084341221355161e-04
-3.703729170858450354e-02,1.594471351412879087e-02,4.586311438293039222e-02
1.484586911363805148e-02,-3.212757407032969248e-02,-7.278178688934926199e-03
1.150266184353021387e-01,6.698758895858791806e-02,4.138499347674412521e-02
3.007207036227112912e-03,8.667420395236198616e-02,-4.452800342250608917e-02
5.155476622984521418e-02,7.635859847141958368e-02,-1.416893755700946757e-02
4.063534024783582027e-02,-1.013655834370886383e-01,-2.817460877423147436e-02
5.339615270257652702e-02,-8.298171153656662413e-02,-1.349685256124714614e-02
4.584461183269137458e-02,5.016267612178589713e-02,5.534160701516519648e-02
-4.093419227565072956e-04,7.198867030912872722e-02,-8.181767802683207608e-03
2.699358680884879000e-02,1.681528264532347692e-03,-3.673219754272343679e-02
1.736354957607933597e-02,1.359601806782971718e-02,5.441207981550645612e-02
-7.248581610680522591e-02,2.402957535061400751e-02,7.498873581590555747e-03
-4.079083796940645261e-03,-1.033095014330089913e-02,-6.719319534446591136e-02
-3.028296168634437777e-02,5.166917139369627682e-02,-6.645858300804421449e-03
-2.020617875538668201e-02,3.421255721184287418e-03,-4.579297249934428243e-02
3.069710310190614314e-02,1.426574400040616416e-03,1.051168616040157322e-02
4.511674027635467071e-02,6.385027128706168009e-02,1.994034430703926428e-02
7.684088017529927539e-03,1.630764355159946416e-02,-1.073370867526121514e-01
1.565895545177803383e-02,-5.852381365031749522e-02,6.958798591856363291e-02
-6.406532639396694817e-03,-3.219157932789492942e-04,7.239408142405352395e-03
-5.296449453475819691e-02,-1.265693432230092889e-03,3.338957737483738697e-02
-2.558315518764990582e-02,4.652990539369922934e-02,3.733048176669635093e-02
-5.208116597666380410e-02,-7.121558612198763960e-02,-4.616659449277169674e-03
2.653908042143300963e-02,2.093525496262165636e-03,-1.619312239533621245e-02
-3.996055660570503772e-03,-3.157838276298002757e-03,1.300953020990658696e-02
6.618068666545645629e-02,-4.854004244287149494e-02,1.859682587757166203e-02
4.231704964697950017e-02,-4.824619848268797695e-02,-5.303395090470500173e-02
-1.794495198455568416e-02,-3.018532359560758757e-02,-2.429357626009203894e-02
-2.703277464128119381e-02,3.394615837904293998e-02,7.641826336572546396e-02
1.375115768240401520e-03,-1.500722984186746503e-02,5.845006568946092135e-02
-3.253276859575134072e-02,-5.079967729162685429e-03,8.902952022590907011e-02
-6.534125710910530793e-02,-2.380092430926370947e-02,1.668393608727852633e-03
3.607928838994981652e-02,2.858382488767281099e-02,-1.098120960634295026e-02
-2.473949422938308274e-02,-3.332398809512972931e-02,-4.080068782453273590e-02
6.718999470196732049e-02,-5.174340277962463652e-02,5.942057342825102229e-02
-2.099278175013330819e-02,1.448800104891378310e-02,-3.947218736628283625e-02
1.142170909199803283e-02,4.888186252297682839e-03,-5.180770172832833975e-02
3.015903963076537256e-02,-9.260673979145778861e-03,-1.844482391446076314e-02
3.803119754684606418e-02,3.377478227930032651e-03,-7.282984068724122906e-02
1.638873158810171329e-02,-3.125030046616997237e-02,2.819414114002171540e-02
4.565326140413554501e-02,1.868970653485748507e-02,2.686575334215162564e-02
-1.083776803944566831e-02,-1.346059585327498073e-02,7.093725871609879051e-04
1.646607955544689139e-02,1.381883823874117956e-02,-4.819921078381442930e-02
4.873437870684246137e-02,-2.413991536589550624e-02,5.113280080921874665e-02
-5.276048927116811643e-02,5.005472377498213638e-02,1.724776717797387587e-02
2.312882286452137837e-02,-1.286340295093741509e-02,3.833226070329475224e-04
3.599091124626777657e-03,-2.067863631392978865e-02,-1.176256054391643102e-02
1.513771565413554385e-02,4.050495617098169576e-02,6.777706521699361497e-02
-6.019354482536065989e-03,-5.772030319030360679e-02,4.135819024314898312e-02
3.255111123493401037e-02,5.654056688092921890e-02,2.675146830980008102e-03
1.315478512302682701e-02,-9.427245491195843444e-03,2.073859866710060437e-02
2.397107391000428966e-02,9.569376606809888719e-02,-1.904413571853036391e-02
4.068023019104806404e-02,4.052015780690663982e-02,1.320809409316967692e-02
2.660851070476536601e-02,6.616009531362830424e-03,9.399081700299759257e-03
2.811670904311149716e-02,-3.154325841995445773e-02,-1.171472141515076358e-02
-3.310659456495166492e-02,2.166968570101618016e-02,2.836024461215880515e-03
-2.646833685771428704e-02,7.584805385291254649e-03,-1.648993339411593956e-02
-1.730384314339094426e-02,-5.258683806733091461e-04,1.930478904827838404e-02
3.926519583451772849e-02,2.559590158075291874e-02,6.913202876733932911e-02
-1.835616541316798314e-02,-1.399275324019847236e-02,-4.537763465713929439e-02
-1.997150863732583340e-02,-6.407891959852672625e-02,1.785247318984979278e-02
-2.048892695419467311e-03,-7.016268180019580303e-02,2.712882796299762034e-02
6.878934871138109308e-02,-2.910812170343527946e-02,1.227372937736676342e-02
-2.206283799324154984e-02,2.157531726200251354e-02,-4.649541411009344011e-02
2.132415462527497904e-02,-3.450671759589464538e-02,2.849934032559960084e-03
-1.852915670110436008e-02,2.139272556335323691e-02,-3.152565577303863276e-02
7.027687349231387208e-03,-7.181577457605981506e-03,-3.652477175226884198e-02
2.618832209028746846e-02,5.817225554378201852e-02,-1.950055993622301642e-02
4.328111996979186471e-02,-2.011455951818070208e-03,8.161535385608907622e-02
4.145837747095509201e-02,-9.015764890205878179e-02,3.178745952496327826e-02
7.614425751798566122e-02,8.998047273524236583e-04,-5.374154158273781318e-02
2.053439681493664237e-02,-6.562242957669583987e-02,-6.093986431217848082e-02
3.546032236875661797e-02,3.654720916215131038e-02,2.173547768217626991e-02
5.247897788917017803e-02,4.851257035084821645e-02,1.367888142142658324e-02
1.879402043941207079e-02,-1.363157571425399096e-02,-2.599776977899050448e-02
-2.843170892717826123e-02,4.802352374183049138e-02,4.098239733786865520e-03
-2.382020510456171053e-02,-1.811987032287152091e-02,2.708016308001381933e-02
2.115738529494939207e-02,5.115646395223015508e-03,-4.354712582090793094e-02
5.691974857840288206e-03,-1.629779164747768502e-02,7.417455633641971413e-02
9.375222553416705240e-02,2.170311295375578452e-03,-2.839493273059592870e-02
-3.516111502026290914e-02,3.809103260161451898e-02,-1.296241468735688344e-02
3.514475169413105310e-02,-4.866139030616807581e-02,-8.271481360626494611e-03
-1.586056180050006079e-02,6.863406158148842393e-04,2.203680153460199978e-02
2.414099497423614557e-02,-2.479308894347045586e-03,-4.071807131003862823e-02
6.714410324860728245e-03,-5.359543471728740738e-02,3.763104777434954362e-02
2.814292491426254039e-02,2.242507314126869402e-03,-2.019483866376867165e-02
-3.212160914408125623e-02,-1.649395729774371169e-02,7.443588407573321908e-02
4.089100195238815766e-02,3.489907476147704329e-02,-5.038305904489929349e-02
1.204092208266700770e-02,-7.216219028702886007e-02,7.550980789209688591e-03
3.798101378210536755e-02,2.644698310578967940e-02,6.652516524022523969e-02
-2.969116804520028144e-02,5.429323990926555876e-02,8.490092584346074778e-02
6.997132725997888547e-02,-9.285405307412666898e-02,-9.372276659363899115e-03
-2.109447830419330580e-02,2.068896724932399109e-02,-3.779990809331505025e-02
-1.392032974677528089e-02,-2.992187095422430693e-03,-9.532376687093323600e-03
-4.324784802665421896e-02,-3.688460524611893859e-02,1.630802392821686583e-02
5.078014469397909569e-02,-4.021007770822037503e-02,3.750810869840284084e-02
1.074758655638465878e-02,1.189414319759648647e-01,-4.943674419358096150e-02
2.825556770824359798e-02,-9.413316325799687165e-05,4.304112621667412902e-02
1.068841947278522109e-01,-2.150709168703528532e-02,-6.653160683006432985e-02
-6.075005520552953509e-02,-9.385188017857478554e-03,-5.224867334998281598e-02
-2.757373399664343055e-02,-8.492788982091445740e-03,9.957660828134550640e-03
4.391597095050692179e-02,4.717945499405421655e-02,6.971085240545369342e-03
3.525188224428407128e-03,1.367148640663538861e-02,-3.115389141172592025e-02
-6.467309051801950481e-02,4.709326766280585302e-02,4.482783842439968386e-02
-6.115199063718764622e-02,-6.467493621826903710e-04,6.554617759290487468e-04
-3.070425439742804907e-02,5.546520942736120341e-02,2.288842233560306472e-02
3.960320843121500206e-02,-5.758610343594838810e-02,-5.951424507076432530e-02
-3.235277060572613189e-02,3.782322902777401213e-02,7.346407801753829236e-02
-4.809674570256361470e-02,1.730233993985930835e-02,-6.532290508034590583e-03
-1.692080264400193032e-02,-3.658556020104827139e-02,-2.972695300501038834e-02
-2.778229031693495513e-02,-1.229047667842615710e-02,1.303393835136875886e-02
-4.758832421372224952e-02,-3.881957613043138244e-02,1.081198279449455124e-02
-2.729033943911066823e-02,-1.541092244236828487e-02,-5.635297653607123508e-02
-1.320600782871503114e-02,-2.230955282182272778e-02,3.443310069545229418e-02
2.566450939582484367e-02,1.533032285090087966e-02,1.932082736464080241e-02
2.470474224812979278e-02,-5.397496865530054810e-02,1.158744836597791483e-02
5.902984352917199813e-03,-3.730351606995994940e-02,-6.140465676788565974e-02
2.900164076439286972e-03,5.752245540728971596e-02,4.884085811479388362e-02
4.469784619672052123e-02,-2.457373850272001267e-02,1.707019306302183211e-03
6.985412740469669555e-05,-1.526935859086422410e-02,-6.715358062100286983e-03
2.039697296356313139e-02,-3.459798961706504836e-03,6.668177611869958998e-02
-7.414750897859464195e-03,4.454611883258848687e-03,-3.740627167508305678e-02
-2.478104692912824758e-02,-1.427919386041746549e-02,3.707567246139505807e-02
-2.125864621914388616e-02,-9.777924141179299145e-02,-3.839751830825671730e-02
2.489930893689336344e-02,2.836861878202289605e-02,5.941122400332553982e-02
2.310015621372547498e-02,5.542389864720604145e-03,-3.677362268868794581e-02
7.045415943112971757e-02,-1.322226078420596015e-02,8.761850832412920731e-02
1.203890842089759203e-02,-5.106176562658414249e-03,4.647861873365038976e-02
2.812342454271629308e-02,2.169721563416163526e-02,4.390946403072289866e-02
2.050914644749626467e-02,-1.408771119232910159e-02,-1.878187367475134609e-02
-1.265032333108041460e-02,-8.236920920996336493e-02,1.353313249792144693e-02
5.013516701864501046e-02,-5.996068886445338891e-02,-1.999176605598916232e-02
1.831848282088227586e-02,-6.624412167838704402e-02,-3.569857728495909321e-02
-2.460960828053580102e-02,-8.353125259089513865e-02,-7.224221600967004053e-02
-5.425464927066733778e-02,4.856323506353212721e-02,6.366494202267243552e-02
7.815939582061964862e-04,-9.975841603767234000e-02,2.701249755004630701e-02
-4.859174082316383009e-02,-1.293759580311555982e-02,1.247772005180463467e-02
4.684867149902944422e-02,-5.121601019580530878e-02,2.114649441419152662e-02
1.816532889081216157e-02,-4.252342650408781621e-02,-9.751575017558487823e-02
1.808510521572299174e-03,-2.877559156574568955e-02,-2.159988695562093438e-03
6.757877085032117440e-03,-6.923645068257770069e-03,-4.311276059057619903e-02
3.750135107989570338e-02,-4.536649782958978444e-02,-3.920763744962914299e-02
-1.857183200342757412e-02,6.958987905417121644e-02,-6.147849626575543208e-02
-6.421786531054449187e-03,8.704439074015199798e-03,-1.287337582333678010e-02
-2.912056605643381646e-02,-2.300285831447811818e-02,-8.692027814748931602e-02
-3.013378112588960874e-03,6.342586748052839174e-02,-6.157926152261164465e-02
-4.427669005053219003e-02,-2.161807576534241840e-02,2.558440531864950018e-02
3.994621423083378337e-02,-1.262199414142715914e-02,4.345464085423950129e-02
4.121246387977916571e-03,2.906088853387726878e-02,3.435523676867170695e-02
1.733146115829962627e-02,-2.305857021501988430e-02,-1.288023257863029833e-02
-9.592372748408054331e-03,1.457860015271076476e-02,-4.341276677307877307e-02
-3.352043052501679776e-02,-1.331407584269832592e-02,8.530602545324628139e-02
-3.776858299230195087e-02,-4.301214830235851327e-02,9.927968003849903592e-03
4.662139548611000418e-03,-1.198985090133951369e-03,5.316584310354279669e-03
-7.231348223875230276e-03,1.084905925116627645e-02,2.758329362590604752e-02
-3.043514384282654250e-02,8.196831302630322447e-02,-7.353197840443774502e-02
7.139417093349741117e-02,2.419992254850751937e-02,7.150507021244083272e-03
-2.065164874328861457e-03,3.203632504720393959e-02,-1.049982298244916679e-01
7.472422782166221467e-02,-3.102806291870370374e-03,1.844007539672883056e-02
6.155490647682579364e-02,5.824512781033520936e-02,-4.330600326341967760e-02
6.694896173930958705e-03,-9.453746888874774157e-02,-1.839757227730137029e-02
-6.508728652861892061e-02,2.995643885768687134e-02,-6.205048154023660306e-02
6.251275492699681635e-02,4.316024307417445222e-02,5.654492099273637773e-02
5.714492288530955560e-02,6.091079275296864409e-03,1.163859193725211849e-01
3.023139873829055677e-02,4.117794733320735701e-02,-2.713740565137528690e-02
-3.398943562505517269e-02,5.942631948256978103e-02,5.208393421834931099e-03
2.772238518946510202e-02,1.458664051820238866e-02,8.254389186028997542e-04
-4.826166820552066361e-02,-6.359351703670156064e-02,-4.825164923967984604e-02
3.729264674555693437e-02,1.545525699194860931e-03,5.543630649720205500e-02
5.255412370568667696e-02,-2.697512641626616595e-02,-2.044314224450125006e-02
1.000153069865527752e-02,4.726505196604662874e-03,2.013954366179287071e-03
-7.745536894544412243e-02,-4.065871584312498975e-03,7.335716342080490782e-02
-6.055787331761948444e-02,-8.475674964205261175e-02,-1.784229149787073393e-02
-1.905800798618520128e-02,-8.931805838300808931e-02,-3.574074408537955549e-02
-5.311770189397965053e-02,3.882605786009515891e-02,-2.546515374493745973e-02
-2.660084697999732378e-02,-3.585970748531166347e-02,-6.764661829105153394e-03
-3.988076202081108218e-02,-2.234128683408849458e-02,2.674609302071452935e-02
6.314413000897843575e-02,-2.351916386623019786e-02,-2.130326294477752347e-02
-4.262245056769007473e-02,-2.294946222867923907e-02,-4.901527586382328078e-02
4.406592481011657562e-03,1.219881470735744398e-02,2.686447475919300984e-02
1.038523885197185741e-02,-5.284538962032498885e-03,-1.449389076610744197e-02
-4.911136150334344252e-02,1.203253177819506477e-02,-4.890797942750638172e-02
1.146719450364786473e-02,7.554989093754851948e-02,3.769816251200466817e-02
-1.054270115963737708e-01,-4.277503184799895386e-02,-2.756565194562508522e-02
1.842976054568244704e-02,2.265717049442454462e-03,-1.585817885766092200e-02
4.531468369646038385e-02,-3.504748417106058611e-02,-2.579279141462210642e-02
9.664290934375270592e-02,-2.395316520345204536e-02,-7.195215342627513111e-02
-1.081518119354618959e-02,-1.696569779736158481e-02,-1.969603786529749642e-02
2.438381858007593241e-03,6.391591644582295118e-02,-5.609236551645392643e-02
-3.701395676207117763e-02,7.168087568953361577e-02,6.703773851764893710e-02
1.459919597948350703e-02,-9.998086909988873963e-03,7.457055162709581679e-03
4.250072372846110808e-02,-4.696416569119083589e-02,4.237561185974882821e-02
-1.032418664236310346e-01,7.278625455107280706e-02,-5.870693936010128872e-02
9.625907933778057868e-03,-7.612741924486855771e-02,-4.371073135247217217e-02
3.257291394905006965e-02,2.650626000942334429e-02,5.354435727046609602e-04
8.269015214907199027e-03,4.325392609067365418e-02,-8.980130889507796643e-02
2.524702693222782152e-02,1.535431397683765901e-02,-5.331353514103824229e-03
8.154437706877953884e-02,1.131537261072065870e-02,2.608906828475769657e-02
-5.110919882056449981e-02,3.552159767118069633e-02,-3.497505214201186707e-02
-9.313465501190325291e-03,-2.755547600488932134e-03,-2.212583242134071385e-02
7.199039595360263652e-03,-2.146557641347469209e-02,-7.500514914612889383e-02
-4.008364253014725861e-03,1.848738294104141158e-02,-3.788138261501047821e-02
-1.232632204645292898e-02,1.071397267341285715e-02,-3.465447519578798707e-02
6.491649650277675487e-02,1.074747612182715487e-02,2.067073828980179120e-02
2.991064698710998657e-02,1.487608060107294475e-02,1.344688774038890929e-02
2.187163307459809303e-02,7.861102859753933692e-02,7.144203135299176388e-02
4.199909572294267465e-03,1.903074247051038045e-02,-3.002965820930892510e-02
-2.309867786585548949e-02,3.730400101483383885e-02,-3.728628587475971840e-02
2.817835228006279960e-02,-3.131730557560721134e-02,3.907892495229465385e-02
1.217969216076380569e-02,2.921717725186212186e-03,2.352720548128378261e-02
5.419283545032947680e-02,-1.918186854174659325e-02,6.164939347397519614e-02
-2.240393014290036761e-02,2.949995527087573288e-02,-5.507043694682975388e-02
-2.865283812638344529e-02,-4.888209933726664347e-02,-2.259954474394886351e-02
3.828815010966229310e-02,4.306164893051154380e-02,-7.738077648705948657e-03
9.173403077443348722e-03,-2.876443562453061958e-02,5.693856375282412008e-02
-2.116983230903299665e-02,3.094069938817012918e-03,7.807204743922675945e-03
1.083400259339159857e-02,-2.366439634518370874e-02,3.229826226438232972e-02
-7.483714412038545982e-02,8.531726006668750861e-02,-2.869879335877973878e-02
-8.015813916099021053e-02,3.508603960924307902e-02,4.403894961794001250e-02
2.501343368857392169e-02,7.094380667462016343e-02,3.381599325044642307e-02
3.031995451216117077e-02,-2.817437650711608621e-02,1.862385539541439386e-02
8.723974664839598270e-02,-4.226847266721234925e-02,-2.179301896688601997e-02
1.810931738448686226e-02,1.412110980986370362e-02,-2.015477690356129795e-02
4.331806013248721242e-03,-2.023039415560893770e-03,-3.619571504612251189e-02
1.553414241620392974e-02,-2.888758851570058517e-02,4.913226952606426085e-02
1.991739570140582671e-02,-6.066342115531347251e-02,-2.682824892707314293e-02
1.035862524733671686e-01,1.588897924846647061e-02,-1.018704288814261012e-02
1.172227439223547975e-02,3.511181620055470187e-02,-4.395597931736385314e-03
1.613333039544751629e-02,-7.194519935417996448e-02,3.662598954813491383e-04
-1.870181286696249653e-02,5.516888081260583072e-04,4.857955791351430304e-03
6.692676597029858544e-03,-8.385014610932411960e-02,1.718925026477670370e-02
-7.874133426542095221e-03,9.100044340459530201e-03,-1.749678818089617921e-03
