gyro_x (deg/s),gyro_y (deg/s),gyro_z (deg/s)
-3.732025459534041995e-02,-1.432540759309173031e-02,9.745339261877647985e-01
-2.762593173221917359e-02,8.101122874080017230e-03,1.730834476631947449e+00
-2.729771921722003170e-02,8.581772524573204330e-02,2.490829147840832203e+00
1.737728033298021821e-02,-3.232607605115879468e-02,2.999498937423802136e+00
-4.208752578521860604e-02,-1.861292881810413732e-02,3.671773125807276550e+00
-1.285263726909349584e-02,7.656087710865093487e-02,4.286463924933287650e+00
-9.984959757018732271e-03,4.463837685147113016e-02,4.650994496066803485e+00
1.708769572408363330e-02,5.248708835975136877e-02,5.147940017638786614e+00
-4.157148471092048797e-02,-2.150293184062581492e-02,5.495563393894773441e+00
1.929874637980559873e-02,2.616280869168642782e-03,5.791023088281412434e+00
1.005945367851038552e-01,-2.160077968566410586e-02,6.178072916757968436e+00
4.635228702183556010e-02,1.065970451475617940e-02,6.452625748369735348e+00
3.463100418980943895e-02,-4.573842278633779082e-03,6.757913985555691561e+00
-3.136685274548092761e-02,-1.060580099858169645e-01,6.881908896783122564e+00
-6.630581396433352093e-02,-3.145815272841247148e-03,7.153969603685460754e+00
-2.175198974822418335e-02,-3.567282887383981665e-02,7.305617885487039942e+00
-3.791457548599359156e-02,-8.414192610734042010e-02,7.433705328581440064e+00
3.621897931856389585e-02,3.307448734573857629e-02,7.690034589715189384e+00
-1.204927219549560558e-02,-1.814069567800305829e-02,7.670041225364407467e+00
3.750643814886302219e-02,-1.775083522264928396e-02,7.917074878557252227e+00
-4.084454489861675044e-03,1.410068470050799931e-02,8.088547316103181117e+00
6.538056188242039046e-02,7.559747542925032704e-02,8.079125819601888026e+00
1.749930106471140820e-02,2.786537252934838393e-02,8.152650558652567270e+00
-1.045471573552917560e-01,-3.237148117470294798e-03,8.287781297883471510e+00
-1.881106823179459287e-03,5.937134192573583630e-02,8.384486343365491479e+00
-4.194506427354994377e-02,-3.917476544376129709e-03,8.489798361588706044e+00
1.085690693259664568e-03,-2.520160687336070460e-02,8.512588269642696659e+00
1.683836769751952123e-02,-5.323983519475917331e-02,8.528400286985846179e+00
1.083015652609225013e-02,-3.499133595929535944e-04,8.633518841135677135e+00
-2.542505644601736683e-02,-4.581798272397811372e-02,8.607909154705817301e+00
5.288925584942845426e-02,5.082970351952566940e-03,8.739402243268255432e+00
3.104110105988692331e-02,-6.695671951729219307e-02,8.654919254972190501e+00
2.932492339493003586e-02,1.351266816236956943e-02,8.690432253290325093e+00
4.920693845930895934e-03,-6.807864228585920607e-02,8.780793138949116283e+00
-1.409633998293124621e-02,-2.365531204438474713e-02,8.716881478032826536e+00
1.602779766547631282e-02,6.125638699608815241e-02,8.755035149001198391e+00
-5.329370823316813277e-02,-1.770190262517312013e-02,8.847780868111357222e+00
3.142754937408784310e-02,-6.099265889557481043e-03,8.783735217541272178e+00
6.232133903802822977e-02,-5.180225347000471520e-02,8.897981230952122900e+00
1.547286070599676426e-02,2.270656500848490175e-02,8.823273056202920017e+00
6.770912927870602338e-02,5.329685894651356448e-02,8.849456019497537795e+00
2.254911619031835235e-02,8.400427152412315301e-02,8.984375553906696510e+00
-1.471203946654571666e-02,1.331526443973367162e-02,8.912614832577883561e+00
-4.454718592097414720e-02,-1.189514400226143048e-02,8.910003943234571011e+00
-1.428997292826955645e-02,-6.399984845050677926e-03,8.993098021910441275e+00
4.125120439860740368e-02,-1.840484062881163688e-02,8.884929112062634360e+00
6.396804343736382792e-02,-5.459363442153086776e-03,8.952762651574907693e+00
1.301895070507862878e-02,-5.995172565614413640e-02,8.941425985800504961e+00
1.693354549905496179e-02,1.362253562252209622e-02,8.930436116840159144e+00
3.316156741303922378e-02,3.651674390449501789e-02,8.945315326035457204e+00
-3.241281627954993930e-03,-4.421534825698994822e-03,8.945337317776663966e+00
-6.510373395052082915e-03,-5.894857004160537067e-02,8.959096976212247654e+00
1.651598462338369627e-02,5.028493495426424259e-04,8.899687044352603493e+00
4.020798243461255056e-02,6.100359823200126458e-02,8.963097580309971946e+00
-6.288040258726617336e-03,1.698787649642423750e-02,9.008064617481698733e+00
-7.312477627161763361e-02,-3.013346109055033833e-02,8.956557307973302073e+00
3.576530282022957058e-02,9.206431178938372095e-02,8.951210850846651468e+00
1.137608540341594338e-01,3.456848962634617717e-02,9.010220700627074919e+00
1.596653561617747408e-02,1.215109135355065678e-02,8.939323236152771912e+00
3.155870254083289334e-02,-4.706422387878079344e-02,8.937731944286218422e+00
6.766208598077809444e-02,3.580378504824313374e-03,9.031623037437610080e+00
1.347285352904480614e-02,2.814712496174396131e-02,9.005195079646323819e+00
1.791976671105875371e-02,-2.633861930748033695e-02,8.971001703123011595e+00
1.098720344989074279e-03,1.520400933189554500e-02,8.933143353920971919e+00
1.029270173105281266e-01,2.022115682254247565e-02,8.980000721934487729e+00
-1.146935693802505207e-01,1.028719189456781952e-01,8.943810911122957563e+00
1.219705675769242915e-02,-5.616950360924617691e-02,9.009441979094257036e+00
-4.190072464277181524e-02,-5.887181111669639866e-02,8.963061465016256335e+00
-3.038803945914396454e-02,-1.520715887516892618e-03,9.084810717871885544e+00
-6.263895043811524080e-03,3.606370681962034475e-02,9.009876766259536041e+00
1.918955737775305398e-02,-2.092575511866992099e-03,8.996597751828304013e+00
3.131533392163125123e-02,3.523095708227546446e-02,8.983525573398457809e+00
-2.337143784251027173e-02,-1.487287904561671384e-02,8.995721497483282647e+00
-5.850825221340888796e-03,6.415763699193224867e-02,8.924450558209715112e+00
4.011269567043092982e-02,3.712913225059263217e-02,9.050023677091528995e+00
5.206460437750857345e-02,-3.239071216663461962e-03,9.006943621997121951e+00
1.927643597488509775e-02,3.577321273775820737e-02,9.002322792980779198e+00
2.373811059366402743e-02,-2.245726677984606276e-02,9.086086535755125482e+00
2.473249346747452213e-02,3.059784131101823262e-02,8.970267873350854515e+00
-4.231923948827492898e-02,-6.383182552795915732e-02,8.992462772320813258e+00
-2.463644871196365126e-04,4.871200141228070046e-02,8.989562655076120734e+00
3.567402469556831251e-03,8.996992095456861696e-03,8.963459560704801987e+00
2.151467953506138939e-02,-1.537013280374113083e-02,9.068761079465929242e+00
1.008329403493420789e-01,7.000683700650285612e-02,8.937822186726215534e+00
-2.384367015277017235e-02,-3.198170773300643838e-02,8.990165821060715601e+00
-9.841352149775839386e-02,2.642073657633955963e-02,9.013004939842099716e+00
2.108975563215343199e-02,-1.591556578012987694e-02,9.026428148525480921e+00
-2.246855153579588316e-02,-1.285852051198503251e-02,8.986090081127654727e+00
5.576352178061100284e-02,3.580506452818831703e-02,9.002040583180018984e+00
1.402730013562885139e-02,1.196247449782283923e-02,8.981266758041957843e+00
7.135660360181737827e-02,6.961642916265589100e-03,9.062608429620338413e+00
7.372714987185956248e-02,-2.663969402441310891e-02,9.000892976291973824e+00
5.339077219109998607e-02,-2.895041814629396165e-03,8.989569428050588229e+00
3.678580268106006884e-03,2.328420555241533102e-02,9.035042480860326464e+00
1.161259408136653716e-02,-6.761833968318199661e-02,9.000881788371509984e+00
4.432939884347349840e-02,-5.603445229858956822e-03,9.048585958632513027e+00
4.883289607025349810e-02,4.110212276883250943e-02,8.982903827765237992e+00
3.633961152651603993e-02,9.870128599623402554e-02,9.038888387572162841e+00
5.579446916296953302e-03,-2.676117560716697111e-02,8.995532267479246613e+00
3.951935489038339855e-02,-3.960677750950863940e-02,9.027753647512591684e+00
-1.982805120270181298e-02,1.908503088058187067e-02,8.995267473817039061e+00
2.845827943647339861e-02,-4.216733973294353732e-02,9.017426545839688501e+00
-3.578649179143726915e-03,6.802927329504916687e-03,9.029140967623808578e+00
-2.014474771470770725e-02,1.959613012779973240e-02,9.018587127594397401e+00
-2.566247573567093793e-03,1.283152659228569727e-02,9.033702680384115169e+00
-3.439950432412765963e-02,7.485718701842593303e-02,8.978083609114962726e+00
-2.967860773345076808e-02,4.596215316760466491e-02,8.985970390952216391e+00
-1.936743241128386500e-02,1.178674136695740358e-02,9.024402620769651051e+00
6.866449809840022463e-03,3.765915987080861727e-02,9.102721216431213236e+00
6.092556904048399349e-03,-1.778452942281435849e-03,9.046144349333580692e+00
-5.564612470557134954e-02,8.258054510403271820e-02,9.026889093841370837e+00
6.886940743783477592e-02,-2.184513779499598022e-03,9.036537453724163171e+00
-5.383312362297116259e-03,-8.249109744735835803e-02,8.998923927594736583e+00
2.252405487569230855e-02,2.901725326633922478e-02,9.039793445948960837e+00
7.168019515286386777e-03,4.517891427446020514e-02,8.971186235393183495e+00
-7.280567146032765335e-02,7.729888817501075378e-03,8.987834509096584767e+00
-2.117930989268434691e-02,-3.489566394006692052e-02,9.026948353950112747e+00
1.202202707633645215e-02,-9.150894234651575643e-03,9.069511082537218272e+00
-1.138787418084591385e-02,3.949437119960880899e-02,9.006030982276767460e+00
-4.405002228305543444e-02,-5.556301882811642834e-03,9.027396971928782321e+00
-5.308461294407849224e-02,2.623440365875747207e-02,8.995823344605861749e+00
7.336723087056083552e-03,-2.773603849265469240e-02,8.902426529421678225e+00
3.656270596125250211e-02,3.249267897707185798e-02,8.989599917861166745e+00
-1.230949552512719883e-02,-5.133513476331282716e-02,8.962920777243127191e+00
-3.416968196727342144e-02,-5.327126801652447979e-02,9.038586722669403883e+00
1.059239543432686226e-01,-2.079256628734151707e-02,8.987004687919194268e+00
-1.524309508701261404e-02,-1.058358513428463502e-04,9.004090087439490020e+00
7.068059350061471624e-02,-1.951527241532028528e-02,9.026026227652216960e+00
3.578085665303313428e-02,4.630257782714328890e-02,9.053373550821316229e+00
3.186523974789456232e-02,-1.187912834837240479e-02,8.968155900636658018e+00
-2.594493601429533752e-02,6.597293827305938940e-02,9.018559256775487754e+00
4.749430002924359337e-03,-4.122806192603284403e-02,9.111375060598687625e+00
-4.087696034780066885e-03,7.546533315190503965e-02,9.040412441128603760e+00
3.251232284719308974e-02,2.662122544486094852e-02,8.978205157230476630e+00
7.430856988431389087e-02,-4.871101468045827693e-02,9.016997481132554171e+00
2.478453850253338822e-02,-6.456385817140764156e-03,9.008930768024500324e+00
-3.484338462826423038e-02,4.230889877310611141e-02,8.927379502277053902e+00
-4.719174071749486499e-02,-1.096994561752560465e-01,9.018195172640169233e+00
3.611471243390355912e-02,-3.321702168895034057e-02,9.047254674814316999e+00
-1.596697364889288970e-02,7.611224569312206867e-02,9.007991306515199526e+00
-1.317965799091808110e-02,6.257739487442096071e-02,9.004407699610734284e+00
6.007838752885227840e-02,1.261157217679909071e-02,9.041024002697627182e+00
4.723062176818226127e-02,5.035235252789314322e-04,8.987403694428254042e+00
-7.551257424814949992e-02,-4.578343754145094285e-02,9.015516737483197929e+00
3.896128671961016088e-02,2.721333865804622179e-02,9.043181290726652222e+00
8.714503131455976492e-02,8.840516927761169624e-03,9.033442290913702877e+00
2.405807423107125115e-02,-5.091099340713297478e-02,8.971552257657325669e+00
2.293918897534165044e-02,-3.132352712728157795e-02,8.987409265231567801e+00
-3.896038669651671199e-02,-5.952448048130048498e-03,8.919951372277161283e+00
-4.761607374182778851e-02,-1.105027946321482032e-02,9.008670624156598805e+00
6.198684635553222688e-02,-5.305759366646295438e-02,8.907721531179367602e+00
2.828496455407839352e-02,1.590080583182004043e-02,9.005139835667325343e+00
-3.251798015582382101e-02,7.417342114478475690e-02,8.960915540511576793e+00
3.906516308990321679e-03,3.707202729741622751e-03,9.002125233258595927e+00
6.461176595097074815e-02,-3.339749546967935717e-02,8.956458655558680704e+00
8.662000940627056708e-03,7.203973158788996856e-02,9.000088035806113496e+00
-4.266591096487373086e-02,-5.591207583100351805e-03,8.931479896166258925e+00
6.027640107089947928e-03,-5.676458573254077739e-02,8.923298550335148960e+00
1.171634137547919279e-02,5.664313128038165474e-02,9.053722148925576363e+00
2.504486793931306760e-03,-1.412923043000661148e-02,8.960187318347390573e+00
2.392734174544995304e-02,-3.316669685417019536e-02,8.990699213806310652e+00
-6.315738099932081961e-02,-4.505861397289166737e-02,9.012504422113671865e+00
4.929548528381393069e-02,1.955634014198414511e-03,9.005399375219518276e+00
-3.513814315953094070e-02,-2.194219616879371226e-02,8.959993496843862815e+00
7.959770420243612171e-03,-1.312543445323609455e-02,9.001479525743404153e+00
-2.134145169274757198e-02,2.304561843297652651e-02,9.062767300217922539e+00
4.319422904894850562e-02,-6.313276573977867623e-02,9.036835075685184293e+00
-5.684966864571449480e-02,1.331980445537349171e-02,9.046603613379428310e+00
-8.956183180577755379e-03,-3.833039021674244646e-04,8.993149264554126887e+00
1.741850403545157355e-02,-1.031838346135487486e-02,9.049329457867180793e+00
2.265434925787634599e-02,-6.279707544868143310e-02,8.972708001248305365e+00
1.235381992558922878e-02,2.297368800310843617e-02,8.972959600829515381e+00
-2.981841052235297950e-03,2.091638095427839766e-02,8.978032093742003283e+00
-7.458214531426018978e-02,1.120932366834205898e-02,8.987815805931962387e+00
2.201324720070468866e-02,2.990330076102530122e-04,9.016805879698424064e+00
-1.890992211201098644e-02,-1.215258662109390368e-02,9.034538276497166009e+00
2.362782118071026990e-02,-1.502694276014111645e-02,8.937667576680672354e+00
6.138282026325105056e-02,-7.468308578179649881e-02,9.035068258899430660e+00
3.629501098000673109e-02,9.920854257139151769e-03,8.999140107872825922e+00
-4.956419558355478622e-02,2.305970816101932802e-02,9.024109615516394456e+00
4.057658079800538151e-03,-4.911889556085161784e-02,8.957757933352336721e+00
3.232387466943364290e-02,4.062521743707321782e-03,8.968297867059273898e+00
-4.729248119146911566e-02,4.660697986986775398e-02,8.992636272992061919e+00
4.328700977964264340e-02,4.135105144365820717e-02,8.970708485544584221e+00
3.700409340359735871e-02,-2.006931151807634164e-02,9.055911281160993198e+00
-2.437391482718372429e-02,2.766103048057543630e-04,8.994808323786514848e+00
3.684574176133983275e-02,3.112543716569866978e-03,9.011870791164216854e+00
1.932833258525638517e-03,-3.870977639375695195e-02,8.970029903065343646e+00
-1.099940639164078381e-02,1.937261051038933340e-02,8.958775359142565620e+00
7.626719019729609125e-03,5.791653438832650679e-03,9.023162769769854208e+00
-1.373910453862036904e-02,-4.637115890148892777e-02,9.020951383451711436e+00
5.203078906335304593e-02,4.789125760720361336e-02,8.971830950885252065e+00
-3.429851779713963267e-02,-2.900606085528093653e-02,9.053314524970787147e+00
-1.998718420322234679e-02,3.937765342147082209e-02,9.029863204844286173e+00
-5.903299753835339336e-02,-5.832402859051631638e-02,9.028420586620983457e+00
4.604708466824088825e-02,-3.401634705124847308e-02,8.965667698323724011e+00
2.951068221804897113e-02,7.225272991603090555e-02,9.086306718541536043e+00
1.256577685276216889e-02,-3.295927398548928466e-02,8.990759997675905169e+00
1.896232980751604708e-02,-2.552139209620917296e-02,8.980272201979072833e+00
-6.724589918804529942e-02,5.421193810806536340e-02,8.939009130544382842e+00
4.879822483738569840e-03,-8.655490797068671541e-03,8.896878720126039752e+00
-1.281942005860789262e-02,7.962538927000705272e-03,9.006569767354921652e+00
1.678557691779608216e-02,4.430408752713103221e-02,8.936833467455096880e+00
4.171134821187195973e-02,3.703582255204868751e-02,8.977371116821954544e+00
-2.145958746299357275e-02,-3.999411918115268472e-02,9.039948416028048328e+00
8.132648029426738090e-03,-8.501397304744452710e-02,8.980924440108742246e+00
1.131437915235951677e-02,-2.828612426762176779e-02,8.945252149194498514e+00
4.138907727704008860e-02,-6.053879712095255883e-03,9.021215613886395701e+00
-3.032683515380665655e-03,-4.557525981818219551e-02,9.002403279457389829e+00
4.842246160460072016e-03,5.211970557578265301e-02,8.990394319913590948e+00
-9.413433333767763991e-03,-6.644642448653460820e-02,9.035857301955468657e+00
1.085004269606695826e-01,-4.587918313029924755e-03,9.029549983813355496e+00
-1.412050322443054659e-02,-5.834192408180463585e-02,8.903874835258578813e+00
-7.343725408406433230e-02,-6.022604438362653273e-02,8.987979306306248972e+00
6.495379834598805080e-02,-1.226517996715734485e-02,9.010170605579908454e+00
-7.044461559138853746e-02,4.465299963561682878e-02,9.053221054173825166e+00
2.013608566503493052e-03,-5.271452873426588775e-02,9.012036872789391140e+00
-2.564806807031365724e-02,-2.414191325681554548e-02,9.039153945220048669e+00
-4.122023746512521597e-02,-3.062792139408163430e-02,9.015563551824017807e+00
-6.742810343723561022e-03,-1.215077499216640211e-01,8.966923639827102832e+00
-1.737145590609765269e-02,1.490895404038262290e-02,9.019113941093960918e+00
5.265638291267575599e-02,7.272871963621256597e-02,8.926751811832390970e+00
-3.049201282043012204e-02,-2.264583974844269071e-02,8.982591423094858030e+00
7.120398598325941575e-02,-5.565421191695043429e-02,9.051688105090647696e+00
5.480604668666567980e-02,-4.433807457884222925e-02,8.979162772710139961e+00
-1.855561021505056432e-02,4.380651850410769745e-03,9.023652199922851835e+00
5.996330043619491935e-03,-4.401776289675394388e-02,8.985096427582535128e+00
-1.858031416198810751e-02,4.116723210359814721e-03,9.006316653544280015e+00
4.643741993008732374e-03,1.596350346540958628e-02,9.062079753089649969e+00
-9.021544167239245460e-02,-2.032339922173957703e-02,8.949578722677697940e+00
-1.417586917009248937e-02,-5.675171598750070046e-03,8.948775761106887217e+00
-4.523571884680219202e-02,4.845450777575214391e-02,8.974406322120966450e+00
6.738254909649332713e-02,-3.936771328427040445e-02,8.958338884022907678e+00
-3.291961654862657349e-02,1.557423906306383207e-02,8.946710020386909434e+00
3.794889797615732326e-04,-8.556599691435592958e-02,8.979832174402286427e+00
5.565475301887254193e-03,6.387741924529265203e-02,8.963742356354552854e+00
3.035314578321555989e-02,7.908884706286199717e-02,8.985130563071534127e+00
-2.970909698001307150e-02,6.381243511654179079e-02,9.011250901782812406e+00
4.946741098984492463e-02,-2.512079656814401440e-03,9.013050362333622445e+00
3.834968680769589022e-02,-5.883461941636165121e-02,9.098451175645619671e+00
8.845010873557779263e-02,2.267666975222144485e-02,8.966065231885227860e+00
8.007021799696685538e-02,2.894495645439641718e-02,9.022654755248952441e+00
-6.911765724271233535e-02,6.829931217293729040e-02,9.036555300732654672e+00
4.952236779069880274e-02,-6.206890254158938316e-03,8.944861261101317851e+00
7.864528712982248732e-03,2.580172504127341629e-02,8.997004781242806004e+00
6.694851948338641050e-03,-2.394473383836234412e-02,9.004211934950708596e+00
-5.649206351734834333e-03,2.962217941171925092e-02,9.011905808266934770e+00
3.227541191954488853e-02,9.915494855103723637e-02,9.151448635820452537e+00
-1.586885904406660705e-02,-4.215715768901812099e-02,8.967173099854534257e+00
-2.143400002305549147e-03,2.822028614926025761e-02,8.936480958462899693e+00
9.357486016400932624e-03,-8.720233841816817100e-02,8.897173891927470990e+00
6.726841208671162364e-02,-1.126771165786494451e-02,9.025351210960428361e+00
-5.408765035897650925e-02,4.271327056388116161e-02,8.907755309633083485e+00
2.898283599867419388e-02,-1.497843125311578566e-02,9.007057519321909567e+00
-6.712827363705832148e-03,1.569067705226774578e-02,9.077618283293201529e+00
-3.837219213249147554e-02,7.346315919330186073e-02,8.987351551287869000e+00
-1.763753305250572584e-02,1.593784939160100209e-02,9.037983687915723152e+00
1.200033703223841314e-01,2.674960669778093242e-02,8.941185759913370390e+00
2.445002051959039441e-02,-7.364548277700061485e-02,9.018901403957212182e+00
5.102832981835506154e-02,-2.517221872299623547e-02,9.013531812183272152e+00
1.975977293986627692e-02,-2.082313449711173728e-02,8.958588112941264114e+00
3.010183168962984185e-02,-6.616204393631149906e-03,9.001863330915037764e+00
-2.865181005635623196e-02,-7.349887394182924583e-02,8.959868869100702682e+00
-1.726024389574790791e-02,6.411813086511402790e-03,8.988872498822194856e+00
-9.386394920866139580e-03,-2.532647149195782314e-03,9.021146258484330716e+00
2.829003626996420134e-02,3.056219327129696545e-02,8.973715711508104320e+00
3.054069945664475774e-02,-1.671091935148475219e-02,9.032922354563449829e+00
-6.960930884069678947e-04,1.337811061499935214e-02,9.020348583003917398e+00
1.206706152203608218e-01,1.438164299375688238e-02,8.987386906671590125e+00
3.979725583879661910e-02,3.800576754890722109e-02,8.979605819961681945e+00
7.171277544340637009e-03,-2.419266298444305852e-02,8.970454794452503933e+00
9.962923613702710443e-03,3.952978659806242329e-02,8.995275112865634526e+00
-1.488336466345364234e-02,5.020331862725550820e-02,9.028494569631625666e+00
-9.049867934346753073e-02,2.563991423304067853e-03,9.023671962324366191e+00
4.589380007967487629e-02,-3.197049357555117183e-02,9.003009407256124419e+00
-2.667584053347751491e-02,1.179204748139773586e-02,9.022035554625070120e+00
-4.907385509731678613e-02,9.904248842609483100e-03,8.987750793455147047e+00
-6.571286203724509278e-02,-4.284652142218414034e-02,9.020183566685915366e+00
-4.378373307065681441e-04,6.309412925174991138e-02,8.978828917948121102e+00
-2.260554581618482925e-02,-3.443919586840692160e-02,8.964359248014778458e+00
5.443736370723815943e-02,-3.311272633837514939e-02,9.014302888016072046e+00
4.931800586825404314e-02,-3.596220804417357697e-02,8.995875652360671992e+00
-4.297296187672895729e-02,-4.764015021901670671e-02,9.077457728992124331e+00
1.438735870473203948e-02,3.016561794794593923e-02,9.048665056130120732e+00
7.070576058519146417e-03,-1.302171750750494121e-02,8.985172784306447724e+00
2.532802382089099913e-02,2.157596544517513884e-02,8.977204759685564639e+00
-1.710206615033585398e-02,-5.290244276336968782e-02,9.077351609553335976e+00
4.324742621060990305e-03,2.732310319324253445e-02,9.016080013324680564e+00
-8.581235420720405294e-02,4.531539631275642577e-02,8.994315473601329103e+00
1.493737328496672241e-02,-8.370091083071452831e-02,8.989578067378264592e+00
-3.828018298511674106e-02,-5.389982665790830907e-02,8.963476496053434772e+00
-3.032019210393177913e-02,4.331009783010230513e-02,8.952189472038055484e+00
3.964675467720788632e-02,5.239652982637916373e-03,8.962748131109867344e+00
-3.107292949652883454e-03,2.019336226525837025e-02,8.936895432155903762e+00
3.863975911828749187e-03,-2.969831770970388432e-02,8.978272867592496098e+00
6.405237944369661374e-02,6.858997505852647281e-02,8.953405104799387004e+00
3.595579067670701817e-02,-6.917300993662705210e-04,9.066316367261348930e+00
-5.551997856791803659e-02,3.025897801372051665e-02,8.971160546819142212e+00
-1.888365315424649776e-02,7.615993576426197120e-02,8.985736926848682415e+00
5.381388205917539413e-02,-3.845178489600772909e-02,8.950872637555304934e+00
-3.158172451494848341e-03,7.171060819812826066e-03,8.970733771601864248e+00
-5.560285926063911199e-03,4.872001081723497371e-04,9.011766050137801187e+00
-1.383565911230338723e-02,9.921639739298561064e-03,8.942466448959478953e+00
4.743306076615323025e-02,-5.401695268173341974e-02,8.977765419244624567e+00
-3.742851704875937730e-03,-1.940583215257581443e-02,8.982470808643752136e+00
7.116146716651541339e-03,-2.669739376653346499e-02,9.045824721501107391e+00
-1.804296105612463938e-02,-4.828139043952160876e-03,9.103371651552336630e+00
1.005407672059878410e-01,-2.802860225812069117e-02,9.022467032738934023e+00
2.223869713588548166e-02,-6.549445394742518280e-03,9.006104836866045460e+00
2.757855466827064186e-02,6.638459593803168468e-02,8.895853741713242613e+00
7.679677692720403293e-02,2.869442387062324379e-02,8.928553639611328308e+00
5.236304834289062793e-02,2.789136093156028770e-02,9.052197648177829237e+00
-3.389808608278951224e-02,6.530283767692181968e-03,8.993193057369980536e+00
-6.813594129820677719e-03,-5.477225004733225072e-02,8.961442130168643772e+00
3.619875039827409602e-02,3.599574697286563041e-02,8.964061070649540497e+00
3.399113774486441086e-02,-5.809845203191861020e-03,8.968480226847784564e+00
6.746363108180102042e-02,-3.530431800742098863e-02,8.993454762124148516e+00
3.463070522656445938e-02,3.351684673978983647e-02,9.052128907299849203e+00
-3.782337766886666348e-03,-2.454278701236382171e-02,8.982380505079415656e+00
3.118099309574199826e-02,-1.118610430609683938e-02,8.936509137605739284e+00
-1.167479347537336495e-02,-8.977813999714698290e-02,8.958100037382649816e+00
-3.166531703421417154e-02,7.606300702389406920e-02,8.956091832969320876e+00
-4.597591492809641883e-02,8.793880145223515951e-03,8.944994538602083267e+00
7.604224015768936210e-03,-6.726061986828342498e-02,8.990745518655897328e+00
-7.850173526600438823e-03,-8.634227694510142326e-02,8.977774053881226735e+00
4.944176703258065103e-02,-1.600561813115778179e-02,9.035221991090670812e+00
-1.009549667706156756e-01,-4.112416117954805633e-02,9.030210011068122711e+00
-3.213194415400298654e-02,4.453407332053076900e-02,9.032236536859064913e+00
-3.402043245692749907e-02,1.027348462624520266e-02,9.011535942720000136e+00
-6.162871679285548271e-02,-6.580840165545964737e-02,9.034774604021199806e+00
-1.185165717721983931e-02,-2.413825443680699123e-02,9.028548659038388990e+00
7.348193432247704382e-02,-4.216567909293274935e-02,9.051585997768821557e+00
2.103831900341788727e-02,-3.429608160603194594e-02,9.034984558159285584e+00
3.415666541976328935e-02,2.234408509337517876e-02,9.000331657873561042e+00
6.102140349832148314e-02,-3.708074302574845826e-02,9.016607764253382840e+00
3.969539690386351960e-02,-6.434616870251512466e-02,8.917685225002365712e+00
5.138768259892192297e-02,3.247859754456787484e-02,8.954917589501462771e+00
-7.430754865400245046e-02,1.171633311246924741e-01,8.973349378007723587e+00
-4.994149847806823861e-02,1.238463685658999225e-01,8.992643372121420953e+00
-6.095542478630887329e-02,-2.134320424597757268e-02,9.009274870655580969e+00
1.816474392625631526e-02,-1.569768267278531457e-02,8.994987365162735671e+00
2.428653863496512202e-02,-6.577830596547169784e-02,9.043075291603335231e+00
4.855840365474108772e-02,-1.769810333067314140e-02,8.951011091192087932e+00
6.913602858681732301e-04,-5.028109175951624848e-02,9.047018491329746226e+00
2.386753156825548866e-02,1.536248124051404519e-02,8.937813388810194937e+00
-3.198537492314704883e-02,7.617736998548335636e-02,9.077321291676842208e+00
3.806556523221154426e-02,2.831822237737678660e-02,9.036353155941208470e+00
-1.616672642539175586e-02,1.949025880939641783e-02,9.000257299267131472e+00
4.735897488197452626e-02,-6.606628619796242607e-02,8.995265208649030342e+00
3.210681377787464891e-03,6.490286683772404641e-02,9.043446344340827281e+00
2.096142289779017939e-02,-1.197236466181725648e-02,8.944797789591280690e+00
-3.079149762063731685e-02,-9.022500898292786647e-03,8.986276181425088438e+00
-3.359328780016119479e-04,-7.029590949966917079e-02,9.027054803909502212e+00
2.850591987719763853e-02,3.202141538349800864e-02,9.042002596482900501e+00
2.141051152302720154e-02,1.558781310779189461e-03,9.004282423621420506e+00
-2.186475555122716075e-02,-9.230754771419914795e-03,8.999713189922772472e+00
6.587438871328279641e-03,-3.349849557176643594e-02,8.881201801359262404e+00
-1.078844088205224011e-02,6.123063242792722849e-02,9.063339284178088207e+00
3.280900842656293143e-02,3.468210184976536908e-02,9.024582419349219009e+00
-3.951429170444235861e-02,-2.278272499256537437e-02,8.979884095030332247e+00
1.713771901374121220e-02,-4.785925165110486816e-03,9.031063948954411558e+00
-1.922350396290665835e-03,-5.098782417422528801e-02,9.018773045729062687e+00
2.447214166154543583e-02,8.722963837751385174e-02,8.999361877452756175e+00
-3.604673575323692064e-02,-4.116198497912792326e-02,9.036770759760710092e+00
5.496977558592954644e-02,-1.057870357581968887e-02,8.990991415775061668e+00
1.612648926344690745e-02,2.206763237851657247e-02,9.023622395173271471e+00
-1.560098810121477581e-02,1.638717515148517198e-02,9.019612388133822378e+00
-2.104574896055207145e-02,7.877752478443025841e-02,9.029755008309457764e+00
1.974040891400197575e-02,1.175165686386370374e-02,9.032986210908505953e+00
-7.969150702894770011e-02,1.697272351322703585e-02,9.011633963469902753e+00
6.672785815889172023e-02,-3.234664433812740186e-02,9.065261370841644961e+00
4.099197680946078774e-03,-5.457791467324362572e-02,8.994315413186603436e+00
6.041260784133010986e-02,2.675762346905575031e-02,9.034971752082190832e+00
-2.560787678385016697e-02,-8.493207769915770908e-03,9.072665973066499134e+00
3.520305172536418448e-02,-6.653175455909408897e-02,9.112837066576760847e+00
5.899001648445181822e-02,-3.595072214132125077e-02,8.991232907995277301e+00
-1.408530737102838340e-02,4.276406156741488496e-02,8.978994855960298338e+00
-1.723189886038371463e-02,1.857180692280400655e-02,8.930330530522343935e+00
-3.233359392464993376e-02,-1.045920753338409892e-02,9.079091180773575687e+00
1.854046192581828342e-03,1.140207174087442404e-02,8.896624466042476698e+00
-7.971285727400920576e-03,-7.125714211429126643e-02,8.985357741994389968e+00
-3.450158166168970642e-02,-7.336337463670151993e-02,9.006893906838881136e+00
3.848077619934810872e-02,-3.315175395671729475e-02,9.000534542743476862e+00
4.560622571318787011e-02,6.453008785825517513e-02,9.103306144602042238e+00
2.886275939407567659e-02,1.214510023046242414e-02,9.030669252564056393e+00
-9.367751793890684645e-03,-8.137107896068240809e-02,8.975228042500747350e+00
-6.691246167495151949e-03,2.810275275854664037e-02,8.992325420245032674e+00
8.335943671770043584e-02,8.793363788114800801e-06,9.048045087481719762e+00
1.177066163800740382e-02,-1.157966886036415274e-02,8.985417947787277981e+00
5.546926486123286704e-02,2.122505217279562970e-02,8.936288661472541861e+00
-4.567008051894012877e-02,-5.733299988681384018e-03,8.961647054772175380e+00
3.451349645392316756e-02,8.377154125401294754e-03,9.019386048693052160e+00
2.909355376722688735e-02,2.928682894652399893e-02,8.937159319632886678e+00
6.835665149022235321e-02,3.841585907242607567e-02,8.981352364270950517e+00
-5.299102774847651298e-02,1.470995258906777643e-03,9.008228385282940565e+00
5.821829858912643679e-02,3.388355207557823372e-03,8.980303967922910857e+00
-3.921588304326201202e-02,-5.988987997528866236e-02,8.991763670192000291e+00
-1.479652379532173968e-02,-8.364756124396412196e-02,8.996680794222490007e+00
-4.829778989829730529e-02,-2.224717545069295963e-02,9.053340800071534744e+00
3.079345694869957840e-03,6.850677446174496116e-03,8.987583530435772516e+00
7.165866946593686150e-03,5.622801202784825925e-02,9.047216554689619272e+00
2.684365396085874877e-02,-6.955067862192293449e-02,9.008591985524089907e+00
-4.228162436721472767e-02,-5.560928583533550351e-02,9.053463672868632628e+00
3.493037879346076041e-02,-1.795580848879635774e-02,8.974645142714440027e+00
2.412919365693081894e-02,-4.024073648688304000e-02,8.954856876157847978e+00
-9.973155958363259452e-03,9.401389510277372019e-03,9.021515406111447533e+00
-3.529961010126673321e-02,-9.152087600289773861e-02,8.948467455141694060e+00
-4.398197609950482007e-02,-9.935880259578996551e-03,8.993325436175572563e+00
7.623410663046796543e-02,5.038494483858294709e-02,9.018099226486778974e+00
1.649557518062627279e-02,2.148738104193430656e-02,8.930948022388419005e+00
6.081880637822517643e-02,3.691039272052799164e-02,9.053885188087258840e+00
5.125307214280887258e-02,1.582202893786250480e-02,9.038331546364091196e+00
4.186884424957276057e-02,-3.412295307644143405e-02,9.036147165842450590e+00
3.419629684148881021e-02,-4.225024964377672304e-02,8.968788253113396891e+00
-1.662820188613042122e-02,3.260376731598367550e-02,8.951818594694298525e+00
6.465942348841467735e-02,6.214829760980156159e-02,9.019236648604278983e+00
-3.515342612216648677e-02,2.562758819703777127e-02,8.912253812006781573e+00
9.871387592720224161e-03,-5.584621543371463825e-02,8.969401308088267299e+00
3.245392238031594850e-02,-2.069378319192859486e-02,8.979385915327219081e+00
-3.055682511029452972e-02,2.038096073090813962e-02,8.954000062387308390e+00
4.813328728541641649e-02,3.907498281371086374e-02,9.014332128943587819e+00
-2.775277765058004401e-02,-8.025779577835766287e-02,9.014956938907593198e+00
-4.420426445702196753e-05,4.425703765158857730e-03,8.963834476798941964e+00
-7.809809492011476895e-02,1.580540431313693381e-03,9.027143119904820878e+00
7.938891432314744770e-03,-4.577199887799082018e-02,8.994053037790100902e+00
-7.259350118930141260e-02,3.117248967624874564e-02,8.981841933554386870e+00
-9.675163697651817385e-02,-3.288912762088669339e-02,8.960396496167657432e+00
-5.828322776053916632e-02,-7.200751436943501893e-02,9.012630244299314697e+00
-2.095557031540760257e-02,1.223759035056570625e-02,8.983140159355007981e+00
-5.717950446425102903e-03,-6.512040401752629271e-02,9.031213088207739048e+00
2.839840119345074868e-02,-9.427229017670754607e-02,9.030484942164900275e+00
2.926403197568499398e-02,-1.104669956348844906e-01,9.007064708173530221e+00
2.778962453255939130e-02,-1.233975851280634355e-02,9.013171597479798791e+00
-3.353557079150180226e-02,1.914768989175179986e-02,8.984307913316396110e+00
-5.119108115085727745e-02,1.751493578268815965e-02,8.952608206365523458e+00
2.146337420580191752e-02,-2.008513410404944022e-02,8.989262452505297318e+00
2.268746504751680687e-02,1.788697124275540062e-02,8.948074094639750342e+00
1.343271551601678444e-02,-3.412758863092033024e-02,9.008857982508969187e+00
-4.132672055254949656e-02,-3.606589123589304586e-04,9.036140074724091420e+00
8.557358616036920846e-04,7.364521065669292661e-03,9.040000677557209485e+00
-2.834228216752267878e-03,-2.208520781650215314e-03,8.964571955954447446e+00
-7.962561964555239791e-02,-4.676647956269793308e-03,8.947784063428734669e+00
1.976746593106796027e-02,3.087332383775655276e-02,8.951850521823791595e+00
3.115179863252236572e-02,-7.472954218550729999e-02,8.954112595188716384e+00
-1.400998478994149032e-02,3.361420009455697022e-02,9.048113089741562476e+00
-1.871979568120680712e-02,1.864609132646980610e-02,9.042337550782663769e+00
-3.007967790796339455e-02,-3.426367630652942670e-03,9.020399896569124110e+00
3.474234785382966650e-02,2.185990095430138599e-02,8.957472562689545725e+00
2.656709662867622751e-02,2.436185754703999728e-02,8.985829971315141051e+00
3.504271559567689182e-02,2.102349191571261516e-02,9.019869528540651160e+00
-5.334829060830024311e-02,-9.431877779582010027e-03,9.061298816796670152e+00
-5.519730051769478063e-02,-4.704383545950618071e-04,8.987374438106284558e+00
-4.928836942383297507e-04,-1.572149863407820009e-02,9.020585430355623657e+00
-3.903350796690838870e-02,2.397864675781007787e-02,8.996621161892464968e+00
9.046572905762030603e-02,-3.674874658059933824e-02,9.006557563174279579e+00
7.778399234437261001e-02,-4.867551623765746516e-02,9.059074536410852474e+00
-4.876314339591730079e-02,6.567148531706458459e-02,8.996769603186047348e+00
4.163677466167656910e-02,-4.531149566630708440e-03,9.044683148113776383e+00
-1.791114329662402832e-02,1.951997453968285726e-03,9.014986063809663719e+00
-8.514793796623088343e-03,-1.896610372515034060e-02,9.044604561925751796e+00
-2.001773130690142136e-02,2.977522936073465423e-02,8.985069552728804254e+00
-6.290570953185024849e-02,3.717533897428419026e-02,8.989016879241702895e+00
1.161058119759958082e-02,-6.671391493514478022e-02,9.029553020286018139e+00
1.762801311210798402e-02,-3.896421583144611678e-02,9.023023628316348521e+00
4.752944550982583782e-02,-1.681744556450203223e-02,8.952306408114036884e+00
-7.846633944232848587e-03,-4.939502232955633731e-02,9.015296851566731107e+00
5.537807025931838767e-02,4.996601980784805969e-02,9.054177920575698479e+00
-9.916326319191383007e-03,5.057755066907872882e-02,8.997261075680217601e+00
5.913796472994376115e-03,-4.124002153263792853e-02,8.967342486796264112e+00
1.111304948670696451e-02,-8.718769994175536511e-03,9.013159047056566564e+00
3.342540696879857387e-02,5.336047322738320109e-02,8.985308489330178006e+00
-4.020579430119868014e-02,3.636506461137194147e-04,9.029725997500408496e+00
-1.992651167429408676e-03,-1.337908150159348650e-02,8.978828008254204462e+00
8.109513376765099812e-02,-3.308887781517851068e-02,8.990183386451274572e+00
-4.928744132219396723e-02,-3.771197098101849304e-02,8.946720355754241183e+00
-3.712740799592754298e-02,-1.909075496028525554e-02,9.016739029317623277e+00
-1.699740038859523170e-02,6.522337509849474024e-02,9.032882437594983216e+00
-2.867124852901955026e-02,-1.310335818822356245e-02,9.048765741471946455e+00
1.706521181411702753e-02,-3.938893352873384934e-02,9.020900045668119205e+00
6.179393114030531237e-02,3.587231216484587648e-02,8.989514425130744613e+00
-1.910212088759985841e-02,-5.612139428745797909e-02,9.034496673429510238e+00
-4.458116203737346253e-03,4.942883937882676382e-02,9.096142212429146667e+00
-8.891867296192805872e-03,-1.644004436620495613e-02,9.002879669947652985e+00
5.591113724488308567e-02,-8.990502064416431433e-03,9.049622421641476677e+00
-1.038098356874963407e-02,-2.431437968564357458e-03,9.042965232821895682e+00
6.430630172252364829e-02,3.340646617402447116e-02,8.943105039793325162e+00
-2.900193718723703077e-03,4.040949575838718305e-02,8.942539238699803050e+00
1.502318205252761371e-02,4.622686953224126177e-02,8.983011343997899800e+00
7.976832095299321579e-02,4.899746553540478000e-02,9.021183081023750105e+00
-5.713540822652727474e-02,9.748400519018443622e-02,8.991544527111603458e+00
-4.845871346758581777e-02,3.060310449445223166e-02,8.983839564767560404e+00
5.276767512824452611e-02,3.098958535083779636e-02,8.971539511329176264e+00
2.590378582127685764e-02,-1.201152152652684539e-02,9.042189826254823259e+00
-3.982926387214900249e-03,-1.792501784990503319e-03,8.966453939492268432e+00
-7.016821919808487185e-02,2.029690552162224937e-02,8.997343308797683292e+00
3.784846415162084615e-02,-9.014432622990658367e-03,8.977722059795821608e+00
8.093287188128503451e-02,-5.025020647305176308e-02,8.945331772478452237e+00
5.186548255489378811e-02,6.246705430004322740e-02,9.028804408392652192e+00
-1.447070050088531540e-02,-4.581657819462620768e-02,9.055898346065212934e+00
-2.118026161284457948e-02,-4.939138754405336673e-02,9.008505909052662020e+00
1.277603668907130625e-02,-1.696791644638582022e-02,8.973743975371522907e+00
-4.275436099451375427e-02,7.091771677989672836e-04,9.084962244954940758e+00
-4.459531909311092307e-02,-1.666934002250073515e-02,9.046802077441263634e+00
-6.243805467996839387e-02,1.599352065986550317e-02,8.930342651052660230e+00
1.857650678011650916e-02,2.708009547369780862e-02,8.976426384965536798e+00
3.877433612905675786e-02,-3.814354127599110106e-02,8.993016891007970415e+00
2.352086582923594918e-02,6.033592570924153908e-02,8.984557866913386093e+00
-1.022330548527551758e-01,-2.603240051417092873e-02,9.019288691298104510e+00
-4.689003803732215946e-03,3.367607548362699932e-02,9.036569901581408715e+00
-4.392815789883316308e-02,1.163365530392991287e-01,8.959033667535823753e+00
4.437734283823301096e-02,-1.131616906454399260e-02,8.968054409469788268e+00
-5.609654920028607494e-02,-3.284807924004692209e-02,8.982804564092917943e+00
1.207850662179304341e-02,4.102948718877772599e-02,8.975437470083759806e+00
1.335197119879005627e-02,5.704925180074398722e-02,9.059869027175976086e+00
2.190705299881214388e-02,-3.330947100972348612e-02,9.030142123367502549e+00
-4.859523310079599291e-03,-3.888566639230522232e-02,9.050361147636991177e+00
-3.054202259705406791e-02,-8.096421503633953465e-03,8.913807395317112636e+00
-1.035019565722735367e-02,-1.746282762044564993e-02,8.958535604700847088e+00
-4.928805579516137847e-02,2.594894079595603739e-02,8.964630350034600070e+00
3.441010281388389574e-02,2.991746587687228384e-02,9.025339699720081654e+00
6.060153192667714663e-03,-1.674690309600433691e-02,8.980936878617422181e+00
5.621268549037168605e-03,5.016449923702308300e-03,9.010067440270722372e+00
3.226615127294706412e-03,3.685655699266625340e-02,8.993983213127526355e+00
-2.548687111555786311e-02,2.851173255235456630e-02,8.969124336259815422e+00
3.112711053166820202e-02,2.120672306311801453e-02,9.013677562526384079e+00
1.197699446656559467e-02,1.060064796416454735e-01,8.959927009842269641e+00
8.892372689438684044e-03,-5.522481955005129756e-03,8.968535264491523051e+00
4.092928988315298888e-02,-3.062821512624025466e-02,9.004842641842522255e+00
1.835721936151668782e-03,7.443899857619952487e-02,8.962556436689043338e+00
4.468614178635644391e-02,-4.068202148235993722e-03,8.932528413322362582e+00
1.086146503258315042e-02,1.567617296258530177e-02,8.915912371283203797e+00
2.464642152200511444e-02,7.801180202711347281e-03,9.041249666520775108e+00
2.285647716823287906e-02,-5.192831388546819554e-02,9.018322619236984750e+00
2.389824919835270220e-02,-4.762074771897591152e-02,8.956723826273824685e+00
-4.957643307135913002e-02,-6.382573749656676038e-03,8.984423483186008141e+00
-8.666290994476714624e-03,-3.505158918126449058e-02,8.972227551117967437e+00
2.909900877963041144e-02,-3.028161843783636065e-02,8.972710483578707041e+00
-4.048616127019751681e-02,5.286632808742613120e-03,9.045095616424026375e+00
-2.679576666933119675e-02,3.736729632501866599e-02,9.009765841691052657e+00
5.002299491230579633e-03,3.680724713311595009e-02,9.007884388101631501e+00
1.848348842486009780e-02,4.672851979165771469e-02,8.964405552515062325e+00
-1.798847617810916608e-02,-2.739652088555933826e-02,8.986748550976317418e+00
3.613506015927388237e-02,-9.441264581820922597e-02,9.052833732536898381e+00
2.380381700932565278e-02,-2.122209045466385766e-02,9.036088425618103770e+00
3.614565757726465045e-02,2.511376313880343131e-02,8.913141821729611891e+00
2.052337428712092127e-02,1.097500656141350561e-01,8.979556810994846927e+00
-3.700033121590934337e-02,4.451724131960634046e-02,9.069190543273551341e+00
3.284809981044683330e-02,-7.584683285278884246e-02,8.978516900748223506e+00
3.038422297840477626e-02,-1.616854487380604485e-02,8.988731352353104498e+00
8.991801909073654508e-02,-1.409933567708380846e-02,8.969764313030857750e+00
2.199774187624308625e-02,9.042276265484119890e-02,8.938621751765587931e+00
-4.729993613625085858e-02,7.499994614902338874e-02,9.019035630143861226e+00
3.907561178236396843e-02,1.737551093548298300e-02,8.993409340961221687e+00
2.814916145528735536e-02,7.506235221595033112e-03,9.066739790548854927e+00
-8.565432288907361136e-02,5.876091547857703601e-02,8.916420690157211837e+00
-2.849526023926580998e-02,-5.745130610414282690e-02,8.979091302021135590e+00
-5.348100858372339950e-02,2.511602469212154826e-02,8.973536486605036444e+00
-1.989613719655129384e-02,2.702859030689544820e-02,8.976088888759989004e+00
1.029702647575407928e-02,-5.409761874186470865e-02,9.047700462867965143e+00
3.920356177413624604e-02,-1.457390373509388250e-02,8.987221178294319657e+00
-3.799281812199391956e-02,-2.000471360425179045e-03,9.029852970940734025e+00
-2.578826298681275234e-03,-5.932940141835491704e-02,8.971765245181902770e+00
-1.624410245008816797e-02,1.220643517588095722e-02,9.043073413593193166e+00
1.774118057654349573e-02,5.210627434490683330e-02,9.003514343248241403e+00
7.412654131029615401e-03,-8.400749749474608133e-03,9.022549885656658830e+00
1.585829865778323397e-02,-2.090559950600740652e-02,8.989265953846873103e+00
-5.456737248936907592e-02,-6.763812108970225501e-02,8.961400028144323571e+00
2.336303159780328542e-02,1.841838524457653503e-02,9.064949580588862688e+00
4.392044195636919944e-05,2.468187191957664853e-02,9.018725876371693317e+00
1.620587507730296764e-02,-6.037602372529212585e-02,9.049112245991016934e+00
-1.216196957982064314e-01,6.740391093065566629e-03,8.927618849860202488e+00
4.333367842736164655e-02,-2.598822075522049663e-02,9.027529200874637283e+00
-1.433188963766993292e-02,-3.339545572866107342e-02,8.974327994606758452e+00
7.368899262564941599e-02,-1.254610364037473946e-01,9.012413389760432381e+00
3.246636268770744602e-03,-1.680786036305561421e-02,9.024828944306403145e+00
-1.436260873174447991e-02,-3.937418882290132094e-02,9.036674748862816742e+00
1.106434436184729371e-02,-2.778801569980263175e-02,8.983095994095419812e+00
-1.449989852235198003e-02,-4.633592890106156409e-02,8.954042664098460946e+00
1.777544753073686135e-03,-4.846577461932426861e-02,9.009049201040028265e+00
-4.157023110788093945e-02,1.691566532730862105e-02,9.009671698855044042e+00
9.099670210065759213e-02,-7.603209887390244281e-02,9.037212649379091189e+00
2.013607667951328520e-02,-1.096168468038732566e-02,9.084821267109212783e+00
5.037250682766578752e-02,-2.616755684908276397e-02,8.986224097848747761e+00
1.735669706986303065e-03,-9.404448682854628372e-02,9.045524568802981946e+00
3.233650120658630896e-03,3.894145818590485225e-02,8.991209346401356939e+00
1.351877588865892620e-02,4.005243325466819465e-02,9.000551484821430748e+00
4.001216492981654604e-02,-4.823976277652718136e-02,9.005974109633907432e+00
-6.049120125879870608e-02,-4.529683590723879161e-02,8.962376716664785192e+00
-4.739056874690544818e-02,-7.861707066569922214e-03,9.036639301306040650e+00
9.641604246279179141e-03,-3.825835885866235575e-02,8.974980421139024500e+00
1.132842100282112048e-03,-4.215963892942199004e-03,9.018362731841508051e+00
5.068146573433260360e-02,6.172400165969846308e-02,8.975463389011908433e+00
-1.423813422290173478e-02,3.896097518959874828e-02,8.974010415635888194e+00
6.117999745075924922e-02,-9.826602764225338127e-02,8.985301154953740266e+00
-1.847478545572728281e-02,3.843597489846733994e-02,8.981089527243499404e+00
8.060478491199565831e-02,3.860679116489628554e-02,8.939490011430054395e+00
7.031047270798461424e-02,1.263074160319563712e-03,8.949837822782368946e+00
3.209495464348296329e-02,-6.784853466466671257e-02,8.931189971169246178e+00
-2.237411772071155533e-02,-6.193060235206047232e-02,8.960593685575226175e+00
-8.511118488365975940e-03,2.175012508334094041e-02,8.970115199051365451e+00
1.750890713337324364e-02,8.418014254064586782e-03,9.025093618264008910e+00
2.099908046041127491e-02,-2.967498127616587100e-02,8.954284410996317334e+00
4.975864862586203141e-02,6.647792433505028686e-02,8.944249870702579486e+00
1.342636443110206690e-02,-1.167595029909279311e-02,8.998487178666108477e+00
6.235120242490529985e-02,2.357987333621695825e-02,9.029596835141573408e+00
2.400642386038034232e-02,-6.126202679521948122e-03,9.032045174148750633e+00
-6.171016401311883726e-02,-8.480603984942822193e-02,9.057130899891619791e+00
-4.177299717597683648e-02,-4.168494208247854049e-02,9.048687915716776331e+00
3.379565576204051486e-02,-7.458636322278431631e-03,9.001369065604981401e+00
-5.217771833980362588e-03,-4.200257159833432202e-02,8.965657020309842906e+00
5.528380811882493973e-02,1.252310531825060087e-02,8.914032416419697569e+00
-9.407260057653638041e-02,5.508884066600586160e-02,8.919650355293741839e+00
2.721290416332430503e-02,1.172632397346529132e-01,9.016445459873718704e+00
-3.383830229337794759e-02,1.385756496696403071e-02,9.043964818991168997e+00
3.563590522397682564e-02,-4.733134422661428725e-02,9.030444306284726608e+00
-1.368074170292230690e-02,4.111189119519594037e-02,8.934876986591834935e+00
3.088564601575900445e-02,-2.185204138290772549e-02,9.035862547894017993e+00
-2.346571404996491191e-03,-7.975911536715710529e-03,9.000752820790339115e+00
1.632816260716063797e-02,-5.302452102805607637e-02,9.077706745240684327e+00
2.489829823066382758e-02,-3.504343190465190189e-02,9.004230435912621289e+00
3.251729424551510345e-02,-4.975338557552750479e-02,8.990431228744137471e+00
6.409964467570768328e-03,4.419920205309559730e-02,9.047085640514250571e+00
2.327859457774372753e-02,-2.057415957121498315e-02,8.960781708414868874e+00
-1.125325318506019585e-02,3.229685805993508935e-02,8.985006238035037285e+00
9.386480409722029739e-03,-7.030730916610719583e-02,8.993928040581602446e+00
3.971115900389748758e-03,5.780792643591092100e-02,9.051273757687390287e+00
-4.657371416098574773e-02,-5.430725196415622791e-02,9.018972149963039087e+00
-9.565336539495951362e-02,2.437099759381217872e-04,8.930830173713463438e+00
-4.049736999534493676e-02,-4.075921499660144220e-02,9.024210625467111058e+00
2.894099253966333357e-02,2.766692170313698323e-02,9.002971753499654284e+00
2.911618742530460921e-02,-5.051523103421729638e-02,8.988090277815938833e+00
-1.189624209621964641e-02,-1.819375856323188906e-02,8.957509432046784070e+00
-4.226832279575818557e-02,-3.036556874639273831e-02,8.990889873851369174e+00
2.626776831350087493e-02,2.239968790333460649e-02,9.027560911322307646e+00
-2.309753872121836707e-02,-4.272574618675726438e-02,9.023434599380166787e+00
1.031448207381393915e-02,8.949935970645825009e-03,9.022440941608177667e+00
-2.930786543356260487e-02,3.924897816245306870e-02,8.948327725634102947e+00
-2.595260592320641768e-02,-1.821400247815431819e-02,8.949309829288941032e+00
-1.665200531198887321e-02,2.390219338119351292e-02,9.020507994290680287e+00
-3.813295888609509465e-02,-5.442683106811993521e-03,9.072983818574895665e+00
2.705701411151511040e-02,-1.091247334375728892e-02,8.975712249772946905e+00
-4.844871195651089674e-02,3.925547745407671762e-02,8.948046885209356205e+00
-4.848788031098488077e-03,3.613225945395522574e-03,8.984341940059575649e+00
-3.070823975909493450e-02,-1.366218732875320793e-02,9.036967422542987904e+00
6.633950746670427834e-02,-1.650486313143741893e-03,9.001785795086302500e+00
-2.534167772732735455e-02,1.461961833087654927e-02,8.959929950605950211e+00
-3.297130636385416785e-02,-4.394470650631031317e-02,9.012115823321954267e+00
-2.867781522070414913e-03,-3.662544214692551453e-02,9.095635231637650975e+00
9.844851072784028753e-03,3.883661317178704886e-02,8.885913629511888345e+00
-3.300093261561169462e-03,-2.005697293018330468e-02,9.051407853653433477e+00
-3.872575966702049288e-02,-3.591605028889943707e-02,9.005254518939045383e+00
-5.344114280880461754e-02,9.986183708910172790e-03,8.994737273222151330e+00
-2.863416690452640426e-02,-3.384453019423621506e-02,9.003495784340188379e+00
1.887145782925418735e-02,4.153175920688359155e-03,9.088708824128369557e+00
6.908853479226940986e-02,2.454946019852197528e-02,8.940917004559686632e+00
-1.131208555715713070e-02,4.335158614022917994e-02,8.994953641940323763e+00
-3.369426150908585993e-02,-2.846833830606220611e-02,8.964021896001499456e+00
-5.054995858301689071e-02,-9.318606041665125628e-02,8.916997253814798796e+00
2.881940768298809491e-03,2.456834121712063446e-02,8.992650653316459852e+00
-9.391555703128848243e-02,-9.005386964140538186e-02,8.968026294727508230e+00
7.615020095852589009e-03,4.818468033141194880e-03,9.076178274539119073e+00
2.493402477001101236e-02,-1.107857000653001724e-02,9.023278250517043020e+00
6.422272902618629542e-02,5.071642145401307478e-02,8.970580361587796148e+00
8.442469665679211421e-02,2.141269801414147356e-02,8.952746042257240688e+00
-2.130293437591561020e-02,-1.250997612644581813e-02,9.024916951358253669e+00
-3.422449409717415181e-02,-5.634350788720064035e-02,8.996631245013901435e+00
1.463031854500224625e-02,-2.753759833146746799e-02,9.027047387162143721e+00
-9.129333124258001784e-04,-8.289364513220896791e-02,9.078136043081610040e+00
3.014732804744944469e-02,6.248419687816729635e-03,8.984823058112324290e+00
1.556795980829986381e-02,-3.616798569571510677e-03,9.055375240410411308e+00
5.880202345380031170e-03,-5.610701215979125439e-02,9.006487558613351041e+00
4.863706584335694000e-02,-1.420790276607308660e-02,8.968363270867335757e+00
1.910176490181725653e-02,-5.834095443983847162e-02,9.051840449086780538e+00
1.354255172708924981e-02,-4.428838907486398746e-02,9.031415226286355846e+00
-2.338821629412854777e-02,-3.894578643773149301e-02,8.978492812748200436e+00
-6.133955070628784034e-03,2.456598813174760976e-02,8.955542879025262692e+00
4.898072462282541256e-02,-6.570462484710219882e-03,9.055384547944807849e+00
1.968406913981866901e-02,2.428734164867028464e-02,9.009015914134096192e+00
-6.705272033516701535e-02,-1.936040847969290948e-02,9.013091195635928088e+00
4.389154389475817541e-02,-6.192287522105600212e-02,9.006303989317174796e+00
-6.493223978954061615e-02,5.996276430784968497e-02,9.004364226829789430e+00
-2.252590805940210897e-02,1.450805269013943043e-02,9.020498119415073290e+00
3.665635900387127083e-02,1.368261217463343892e-04,9.070843338907129905e+00
-1.537898807980255314e-02,-4.649897755425629227e-03,8.992011359989859898e+00
2.315882621957511545e-02,2.163416293410794916e-02,8.959134945269125794e+00
-3.463322681304388789e-03,-1.576286593120657456e-02,8.996243466777581688e+00
-4.594870414133926662e-02,6.974920947368019875e-02,8.979766462614266587e+00
-5.613510720813239679e-02,-6.916250977893706464e-02,9.072054073274207653e+00
5.667130779147260683e-02,-3.891361884166397167e-02,8.995970817618923476e+00
-3.271430104168491365e-02,-2.497473786940095780e-02,8.955942945272800770e+00
-2.257830780394089534e-02,3.963605212706065861e-02,9.022428868302652560e+00
3.776866303040460338e-02,-4.350473725997800606e-02,8.962148368823433131e+00
-4.109882381774660962e-03,2.013597381355228255e-02,8.944236061706606122e+00
1.866665580602423768e-02,1.272856863475425350e-02,9.027693324164284050e+00
-3.312688140826635513e-02,-8.507412367167186198e-03,8.990889205442556431e+00
-1.981093098446215853e-02,2.199808604784392677e-02,8.990907155809761520e+00
8.874823110719318175e-02,-4.020422694386863172e-03,8.960577586483658763e+00
-3.817702058354991920e-03,4.789022666987356736e-02,8.984643320704860159e+00
6.060527378429189649e-02,3.647395830931486269e-03,8.985750025381047834e+00
-5.777539977208962126e-03,4.969078226477582905e-02,9.060150541521371892e+00
1.669275568295851275e-02,1.461335417058293520e-02,9.002552290839537008e+00
1.032591919518047324e-01,-3.148523585736760083e-02,8.887074372726496918e+00
-8.530305060829065922e-03,-2.364603293297578082e-02,8.987642123465626298e+00
-6.192766743373937649e-03,1.352629396590893963e-02,9.033049430120662748e+00
-3.568586685124727867e-05,-1.367827037912828017e-02,8.954171795475630802e+00
2.131460038042375452e-02,-5.429069185868569403e-02,8.975760348606284467e+00
-2.329475248417274547e-02,1.291187716093412756e-02,8.987019962685305785e+00
2.137716778835834289e-02,5.412701804902462360e-02,8.979566190941811854e+00
2.588648708132273990e-02,-3.548600422819576244e-02,9.060539670861917472e+00
-6.251962207066387445e-02,9.194709118387480937e-03,9.020953275726860454e+00
1.207804331247162855e-02,-6.848960339591789181e-02,8.998059852662706248e+00
4.854512719465044895e-03,5.345593421763576714e-02,8.947245622376103213e+00
5.275869547858857110e-03,-5.966823510401478986e-02,8.993160119729797231e+00
-7.941875585489641121e-02,-2.161682571141526274e-03,9.036672765661867501e+00
2.662290837286511100e-02,6.007640628754273328e-03,9.008407086265885155e+00
-1.345321544223942317e-02,-1.542853487164526360e-02,9.050728033744569245e+00
-8.132913145409153763e-03,-3.381034145108446215e-02,9.016033224797739720e+00
1.077664855980990828e-02,1.515741351872751906e-02,9.033899065377163140e+00
5.378989566371194381e-02,-2.339453739738664093e-02,8.978120192095868646e+00
5.671807982375628825e-04,-1.814421528813583290e-03,9.037534347576631433e+00
-4.552148982314320469e-02,4.248871638704396214e-02,8.972386589750374952e+00
-3.935254313051791096e-03,-3.163624395134430334e-02,9.020349126038526677e+00
-4.092181620530331576e-02,9.239772142695726331e-02,8.973232305447954360e+00
-1.559925026645186258e-02,4.906538995098628370e-02,9.039447381888923161e+00
7.978400404997140760e-02,2.922759917167918123e-02,8.977490506104581769e+00
4.749115372808377505e-02,-4.092993336473751964e-02,8.980515055585868822e+00
1.181260612575921708e-02,1.180897948671435528e-02,8.931714992158372723e+00
-9.544809628329412390e-03,1.721522953584485316e-02,9.056182931443661488e+00
3.137004852702564295e-02,3.794521613563089143e-03,9.022760634758025589e+00
-1.091871026106047346e-03,1.411626777602334633e-02,9.087524445273945872e+00
6.775163025915631465e-02,-3.589933535885193178e-02,9.118980395645319703e+00
2.431766432292539748e-02,5.318423575012627691e-02,9.020487230749580476e+00
-1.381814601089362791e-02,8.908740328663225516e-02,8.999625981335865887e+00
1.286894986888100466e-02,1.248700167985654884e-02,8.998968821105908233e+00
3.420280438168166182e-02,1.388484840695975060e-02,8.990930153342286957e+00
2.546920458899234324e-02,-1.190893190551020001e-03,9.021655226691605023e+00
-4.386762004160184303e-02,-1.158302817748049496e-01,8.983861106302375887e+00
3.148595431847395210e-02,4.918268476346080581e-02,8.977156299541386275e+00
-2.401322399200951987e-02,1.024144041391929390e-02,8.978605617557667173e+00
-6.332547195412967060e-03,2.699032478209538455e-02,8.921836963614021343e+00
-2.993766932036471054e-02,-4.712051158588098361e-04,9.059808828478008280e+00
-3.784757952674490389e-02,-6.386448969304012180e-02,9.076613025161972104e+00
6.823844970838410795e-02,-6.463417005169606877e-02,8.944634338472170043e+00
-2.776881836934727218e-02,3.647223532923102307e-02,8.975627551203396948e+00
-6.103264255750355527e-02,-4.572351872595411615e-04,8.995145654925263301e+00
-3.782996200756076101e-03,2.064444017136764231e-02,8.950954008495415337e+00
4.266021167851048214e-03,5.509189470313407416e-03,9.002574818169753357e+00
-4.603292186124374741e-02,-1.666295090435512480e-02,9.019281371394336944e+00
9.066181718996930983e-02,-3.297959378509792566e-03,8.952848964015018396e+00
-4.546447680486526838e-02,-1.622532988725201158e-02,9.051615280754029769e+00
3.397726339603454604e-02,1.224530248924737309e-02,9.006949626958634880e+00
-4.817659441488539307e-02,8.356027546190288990e-04,8.927779026816741847e+00
8.340946855066127402e-03,-1.050855296640249362e-02,9.006238816676498615e+00
1.760357063927883714e-02,5.952664680797002672e-02,9.000202302124431952e+00
-1.172161250936068705e-03,1.930101963708062002e-02,8.887886312872860017e+00
4.467245892068646973e-02,-4.493416125057266702e-02,8.941929625920176150e+00
-1.397227272958838709e-02,-1.624256673893263725e-02,8.965174343730598849e+00
-2.726612408158517187e-02,1.430703974326196989e-02,9.045839749803251451e+00
1.597845277272492287e-02,5.653331361576393460e-02,9.049747772997534412e+00
-1.516659822590125245e-02,8.973943063566598710e-02,8.976498566937097578e+00
-1.690271715562351174e-02,3.403415079807919907e-02,8.997113994043532514e+00
-9.079762998225283932e-02,2.899093071485217901e-02,9.039871486364235764e+00
1.587887066203468034e-02,1.832475028035683920e-02,8.992778875976284780e+00
-2.261516339419784166e-02,3.552893405190220982e-02,9.004938272510266017e+00
-1.418327676263958156e-02,-8.298765903440478509e-04,8.958107239906189179e+00
-5.789004463765830798e-03,-4.466655860082221520e-03,8.969796950743162967e+00
4.049614128911158822e-02,4.159999770936010505e-02,8.937311287115109693e+00
1.635637248647220029e-02,7.262879995205294772e-03,8.972860499060091755e+00
-3.287352700959875890e-02,-2.880960921204588424e-02,8.953348093039091182e+00
-4.559146661774194503e-02,-4.197293109705965176e-03,8.982024721020028579e+00
2.471027033585949592e-02,-4.405081794082639501e-02,9.053318285593867643e+00
-3.735643787843003633e-02,4.578592824330305483e-02,9.012985580224412985e+00
-5.873722842897265151e-02,-6.313324187464258719e-02,8.974204100546053553e+00
-5.195068769632991967e-02,-1.010445817416239928e-01,8.954625692060865561e+00
1.047230768172762762e-02,-3.730695814407983951e-02,8.929105450504039254e+00
4.693519858693840502e-02,-2.873516572051625431e-02,8.916285027345212555e+00
3.467790985945495841e-02,-2.982680331467247106e-02,8.968200654435904084e+00
4.438364265886392962e-02,-1.789662913458591777e-03,9.006236628287751955e+00
-4.765458891447957313e-03,-3.711508983290729563e-02,8.971084164384098614e+00
-9.998253253195419840e-03,-4.063653548961794482e-02,8.970083890140111649e+00
-6.467390220795797562e-02,-1.035728881866314066e-01,9.041606536276676209e+00
-1.233486444091641543e-02,1.778573357330144947e-02,9.007325272577189068e+00
-8.923269687119327748e-03,1.895037180325771092e-02,8.935436045596590660e+00
-2.725101545867127106e-02,-1.718223430453158160e-02,8.939555961332922962e+00
-3.451721399151467390e-02,1.361761080133054060e-02,8.953437809779124734e+00
-1.653885082488821753e-02,-7.124188994404914710e-02,8.968782524808105450e+00
-2.237677286250271472e-02,-5.669287008247121673e-02,8.962293712037265436e+00
-4.807356138283803287e-02,5.043294877182687846e-03,9.082304417319983614e+00
3.919368713521157593e-02,1.084096457046083289e-02,9.015375987455410467e+00
4.787276569339675436e-02,-2.233552005635860635e-02,9.031960908907047170e+00
-1.796862603980534448e-02,4.441942094954355602e-02,8.966008966771621402e+00
1.469935311333110152e-02,1.632987778439036128e-02,8.985127460234668462e+00
5.792141528434356819e-03,8.379911237365500823e-03,8.938650378787714956e+00
-7.626162677268269463e-02,-1.555780736552885707e-02,9.012698495810141708e+00
-1.698608397766926056e-02,-1.722004876140109317e-03,9.040960001097110066e+00
2.313540701055636500e-02,-5.099753090753574025e-02,8.916358394232180018e+00
2.670636158943139396e-02,3.223514804225826452e-02,9.024044865396842141e+00
-1.237089485456085818e-02,-5.938763679232444970e-02,9.009030331881735520e+00
5.642300381102708512e-02,-2.038823524258912001e-02,9.012133460792750128e+00
-3.198109402113809892e-03,7.839592488501144485e-02,9.002273241566092210e+00
8.905024795380012820e-03,3.470082839242984857e-02,8.964286073265771648e+00
-4.553860748123521318e-02,-1.344321675659897360e-02,8.951587992692086715e+00
3.155070754942048555e-02,-1.036822109792726390e-02,8.981848056124173141e+00
5.616619853027125797e-02,-1.194672925679554805e-02,8.977274530308230638e+00
2.263896350274159121e-03,6.814527301135619997e-02,8.979915690583682775e+00
3.943629411963054526e-02,-3.297618015358300819e-02,8.928106179279859944e+00
-3.010495497156850594e-03,6.402266625442365640e-03,8.950901723357292283e+00
-4.303775539984458498e-02,-8.867611811930653856e-03,9.044615322368903421e+00
1.035545924586839424e-02,1.582595285061986698e-02,9.037377652967050423e+00
1.497850915047563986e-02,1.067595898038325164e-01,9.011361435181807877e+00
-2.483520400671523909e-02,1.071925550910626454e-02,9.001252020698700562e+00
7.015957356283247792e-02,-6.783506396321720795e-04,8.984378766623615675e+00
3.849316676502583662e-02,-3.337874365886937117e-02,9.008235339079545767e+00
-2.132830992457856664e-02,5.833781197234207128e-02,9.033560935317415996e+00
4.650808112409992451e-02,-2.484828974702604776e-02,8.976786899300895683e+00
6.267456890038233808e-02,-6.324497302305918944e-02,9.017043479626503100e+00
1.917217454867968865e-02,4.472945831595961236e-02,9.021370692591927920e+00
-2.723099810671987184e-02,-1.644696622057308794e-02,9.083402844354020900e+00
5.058339233565417245e-03,1.930580147853378642e-02,8.962110186858918581e+00
2.975005647596474373e-02,-9.736140476264200372e-02,8.956345493850859540e+00
-1.003374230582642496e-02,-1.362003414188821260e-02,9.091371562286228780e+00
-6.326816396551983301e-02,-8.686669315909253952e-02,9.005411957423676839e+00
-4.785872572967184851e-02,3.708604092335901492e-02,9.016771541759464270e+00
4.311918109184157549e-02,2.396758187969632095e-02,9.021688229603347153e+00
4.931066867166659234e-02,-6.930750428147169039e-03,9.027724284909739438e+00
-1.933938439440687981e-02,8.277711680048326082e-02,8.936263906789323030e+00
-1.216936008564906309e-02,-4.834627425671659401e-02,8.990514542022815192e+00
-6.280220339069027616e-03,-1.379036126299526370e-02,8.982091009829741068e+00
6.859209781502581538e-02,3.487709666643061535e-02,8.944923229755584515e+00
2.034380937053942295e-02,-2.536967799322759065e-02,9.025137067205669439e+00
8.262656363322154474e-02,1.609951873675987202e-02,8.994000553558418432e+00
-3.264369323005517770e-03,-2.979503160401912598e-02,8.968221583332832481e+00
-1.915236192194753190e-02,-5.383183812690279374e-02,9.024214607527417442e+00
-3.591783762645737316e-02,-2.829815350479287020e-02,9.012231066451846573e+00
3.784983406241753529e-02,-6.188585579990912855e-03,9.007459879732353514e+00
-1.078676427229858723e-02,-4.275411524245029127e-02,8.989101598933551429e+00
7.127620067677395248e-03,-1.108709054951488235e-02,9.028981248109589686e+00
-7.382479664503053228e-03,2.671163834751749330e-02,8.913237625649671259e+00
3.221265055489577409e-03,5.125190078520557024e-02,8.955723731075211802e+00
4.042134601505181779e-03,2.082930344877663680e-04,8.971905121407280248e+00
-2.248663066299681768e-02,-6.253012005501541737e-02,8.952619731204389808e+00
-7.750685428434900617e-03,3.056754208334431372e-02,8.940092795987508723e+00
-1.311931910822384216e-03,9.379162155864621819e-02,8.971370081067297164e+00
1.163006725282109272e-01,-7.020674925791679788e-02,8.946609695187454747e+00
-7.826736964809484498e-02,7.970025401222215547e-03,9.004556292499346526e+00
3.199242546474357664e-03,4.256937832957080614e-02,9.007545359862483281e+00
-1.222600031662017354e-02,-7.910091666385982156e-02,8.994884652874517883e+00
-3.210090137576256109e-02,1.871148929682131881e-02,8.886320031037707068e+00
7.075471860505812283e-03,3.828964346666158952e-02,9.050874786458448895e+00
-5.211447490762845941e-02,3.732601534349876300e-03,8.967612015558062311e+00
6.234523663878752814e-02,-3.827203271934282586e-02,9.006079734719445895e+00
3.418468707093515191e-02,-2.486265451487328082e-03,8.959643597752256383e+00
2.704062560633414825e-02,2.580428927093251015e-02,8.984228062399408188e+00
-5.195036579661085202e-02,2.878346468111500633e-02,9.064256680611686434e+00
-1.041311978068501093e-01,2.626870067217181373e-02,8.973342784661603844e+00
-2.110415750769602597e-02,-1.859622467310764055e-02,9.039862052684513927e+00
-3.511238307118225242e-04,6.802054799549248944e-03,9.064040653955148130e+00
-6.693127148675195870e-02,-5.295731267153237776e-02,9.044953692353418617e+00
-3.481222673022971170e-02,-4.628873268726625689e-02,8.994783816109418240e+00
6.817549684927976970e-04,-8.085907865458792990e-03,8.977794802995068935e+00
-1.473684277630262635e-02,-5.187039079073058057e-02,9.028544165781436703e+00
4.475448649970700105e-02,-9.095478629556127959e-02,8.983483310075349948e+00
5.227094618380311725e-02,-9.925259888093207472e-02,8.922666324052823228e+00
-3.736979607022881955e-02,-1.425672626372818247e-02,9.010810665402980035e+00
9.465638542957616197e-02,-3.384128110040716259e-03,8.974799607702614423e+00
-2.635227979741111559e-02,-2.347853211348157124e-02,8.906917908045496546e+00
-5.292481862501893786e-02,1.325614772670814616e-02,9.020309524544819268e+00
-2.447334830894493107e-02,-2.138755799117938918e-03,9.002833275970171911e+00
-3.041378092223929845e-03,-4.181716910795407055e-02,8.990931387076665615e+00
-1.167744125860317207e-02,4.664953737640728515e-02,8.987422087173738916e+00
4.584938991537283043e-02,-3.255392207313861225e-02,8.941534942712463518e+00
-6.817114075576113930e-02,8.536412149348584014e-03,9.063544566845807893e+00
-1.139979560758608464e-02,-3.828180223756622730e-02,9.009159759704674642e+00
1.752211193363924918e-02,3.195974255378977486e-04,8.998896027996579505e+00
-1.960091728411051185e-02,6.392711132885044167e-02,8.986099360497085797e+00
3.138521978531144674e-02,2.063898567219963481e-02,8.949861100101395905e+00
-2.979283330818409750e-02,-6.059657981033596957e-02,9.080761030125959365e+00
-3.416427321102472828e-03,1.130836288896732399e-02,8.985646820356405939e+00
-3.443648147593449810e-02,-5.630084044872660752e-03,9.005834644380739107e+00
5.825061588817732200e-02,1.434778927189797951e-02,8.980059940984009614e+00
9.866938951424500392e-03,6.382478333790335238e-03,8.973996491696532019e+00
-2.273903541989925892e-02,2.056406741666383028e-02,8.950690289910607333e+00
4.932616127543616724e-02,-9.621543035521459841e-02,8.934115872744259335e+00
-3.885344411691927288e-03,-3.392956902146633535e-02,9.066125835318242565e+00
-4.402088472330047825e-02,3.659443223022471742e-02,8.992118827394696368e+00
-7.168651443274784776e-03,7.830728268191808339e-02,9.023228805536218644e+00
-2.947027988809421475e-02,-4.550502262533043935e-02,8.975248565744411877e+00
-1.169053960927783804e-02,-1.207205921931913811e-01,9.047289276394343105e+00
-6.252778875443967821e-03,6.038549871196510072e-02,8.936438464557328487e+00
6.727443373904755733e-03,-8.764057700699122433e-02,9.015121393806969863e+00
-1.382957927152020892e-02,7.241789279260996137e-02,9.003531241382196626e+00
7.594298287309543538e-02,-4.318531850307469333e-02,8.973205826619180314e+00
2.685283182775820635e-02,1.577655071025280825e-02,8.953715120635063585e+00
2.247853193025335997e-02,-4.305352303565275485e-02,8.994809227843507671e+00
-5.948584942011007209e-02,-5.338650469161169282e-02,9.009178021627912258e+00
-1.676343940890586900e-02,-4.595064885009410988e-02,8.922672382302389238e+00
2.490541346204790812e-02,4.772077535246740249e-02,9.045584671956735434e+00
-1.990140125351491651e-02,8.445100524621494339e-03,8.980160474462294928e+00
1.174114750325325751e-01,2.870495727606217629e-02,9.003558557507700399e+00
4.972568801054733784e-02,4.299110493452758947e-02,8.988624383880566171e+00
5.367049066519274936e-02,2.721147835948860977e-02,8.948373297185092667e+00
7.706348917932059894e-02,4.710479878262668375e-03,9.027095125926386743e+00
4.225896956573913649e-02,-1.641123692777449877e-02,8.958463474365045087e+00
-1.729941185467395726e-02,-1.882805695260486231e-02,8.975072561599763077e+00
-1.696637210421523753e-02,-1.424671482303535748e-02,9.002816317270335489e+00
7.079470521317850207e-02,8.230253591420601820e-04,8.981061578656643007e+00
-4.331413554333906485e-02,6.581567197351173570e-03,9.026786093302026970e+00
2.132901976233507815e-02,-2.466890910760011907e-03,9.075677202174780689e+00
1.016833030973103430e-01,-7.334464004220789257e-02,9.029223805836693373e+00
-2.310081654393775566e-02,-1.484829429770856760e-02,8.991538912952881546e+00
1.988638124589631531e-02,3.436276708350857051e-02,9.007157631081565086e+00
9.774838649881588751e-03,2.980463972387152952e-02,8.950078452298935616e+00
1.435649039466864799e-02,-1.394958316280136765e-02,9.016828569592608034e+00
3.087248812521243418e-02,-2.588141911769690010e-02,9.024404829414947926e+00
-2.592901661856174614e-02,6.225758846015917725e-02,8.982367785960173379e+00
2.830019612217078706e-03,-1.865160505284851195e-02,8.995229362138584150e+00
-2.318572227812457087e-02,2.916847222880001537e-03,8.977649749582830907e+00
4.087181733438059912e-03,4.169953117166423640e-02,8.933793978266509228e+00
-1.038708838172226062e-02,3.546117842940787329e-02,9.027183461634981754e+00
4.013353888646464113e-02,7.283029221171929968e-02,8.964968813054658980e+00
-1.592815101537374892e-02,1.192919482916237200e-01,9.045994640286652455e+00
3.184653925945377800e-02,3.114000188997522942e-03,8.942099151292060455e+00
4.330627793170591794e-03,1.096165446271379906e-02,8.958506777586727310e+00
-2.283374344433848971e-03,1.585958323912766560e-02,9.037660780366756796e+00
-2.539339778295308936e-02,-2.841062225827499510e-02,9.087234167449084410e+00
-5.654247043740222647e-03,-2.051122207357954433e-02,8.940578947245953145e+00
3.955555035299323369e-02,-1.286637722793700610e-02,9.001660353308757578e+00
1.918651723506470744e-02,-6.644808638491804531e-02,8.995910885138904689e+00
6.140689815796786938e-02,-3.769418456292147890e-02,8.964852591488595479e+00
3.313143871614205455e-02,2.378911672929928667e-02,9.022374832100437558e+00
2.005405422484182049e-02,4.235962961490689904e-02,9.056075002157486509e+00
4.756158437917648238e-03,4.979953172883828938e-02,8.993535968464593466e+00
2.423722176383140761e-02,5.474481423110792722e-02,9.052085542434175736e+00
4.181507628118470710e-02,3.357037090515787789e-03,9.070339324881684817e+00
-8.033001978439886781e-02,-3.084572680374463721e-02,9.010221183486457619e+00
-1.448595217578088797e-02,-7.691970149905030807e-02,9.010395549154193162e+00
1.304139166525215658e-02,-6.439821345362788108e-02,8.990014560127745469e+00
1.035163911568615265e-02,-6.256144214740193277e-02,9.073911200608822725e+00
-3.871407743934115325e-02,5.740502566586764416e-02,9.020630131044651279e+00
4.436963034644107046e-02,-3.263796209244844426e-02,8.990565577947286613e+00
3.103577362778161836e-03,-1.073287182615125738e-03,9.050787532114632938e+00
2.755883849717980991e-02,1.393306777379081651e-02,8.970778584769016462e+00
1.167813451610594938e-01,-3.661583837047808349e-02,9.033997428212863667e+00
-4.519122263173751264e-02,1.228055711674185674e-02,9.002069128611021043e+00
-5.104026681376047647e-02,-2.454874861615166659e-02,8.989250236423993456e+00
5.325213239112266961e-02,-2.108227613843780338e-02,9.023836099176559600e+00
-2.642055396185974056e-02,1.660983389051575582e-02,8.983463909789321633e+00
6.345652383871257934e-03,-8.613954059681508055e-03,9.043218699009900163e+00
2.550798945970417925e-02,-4.687746559732029056e-02,9.054483533701988662e+00
-3.416137552934633836e-02,2.541492430997533466e-03,9.076814266119113128e+00
1.202841709497849687e-02,5.711230287554744205e-03,9.027768007588120369e+00
4.642274478427982354e-02,-3.591707941169076240e-02,8.975778314617118170e+00
-4.489996133630672764e-02,6.137102029493676780e-02,9.074142526810462073e+00
-4.563754404916795654e-02,-5.403520986263455478e-02,9.027699780775611416e+00
-3.070294565158614153e-02,5.132202792875772968e-02,9.066632899895452624e+00
-1.380096545833895197e-02,6.244467758947659132e-03,9.014156557957390348e+00
2.160490273015882798e-02,-4.355579510409268718e-02,9.025739092439188482e+00
1.670259942342643827e-02,-3.792862654983662762e-02,8.997752658651274160e+00
-4.066841427136022591e-02,8.406604923677141530e-03,8.922762000170161301e+00
-2.939819204229981303e-02,9.126329844765496135e-03,9.008132526047049282e+00
5.307157019732381548e-02,5.413019463216534044e-02,8.960984054620926287e+00
7.769154509778322670e-02,-1.072417229835671663e-02,9.018644113058213563e+00
1.428945539552951187e-03,5.182964103274972922e-02,9.025905815099527274e+00
5.225578112874382231e-02,1.905099396294942377e-02,8.946901819610465267e+00
7.765590229692869058e-03,3.893935227961999035e-02,8.993209066154465248e+00
-3.550101026422380901e-02,-5.662918894237865819e-02,8.967045142252262124e+00
2.153319892121124263e-02,2.846123765692461921e-02,9.045143368962518693e+00
-7.082929637018988735e-03,4.163998082951418656e-02,9.122277375360845042e+00
2.007313279505303083e-02,-4.656503580266393993e-02,8.973249368236142942e+00
-5.450297222658817553e-02,-3.916233661277671724e-02,8.967672716346815065e+00
-5.104037570892038661e-02,2.995154086132238366e-02,9.028350547580307861e+00
-2.839391089174662236e-02,-2.912979459655211378e-02,9.055222368139935085e+00
1.905808591431165048e-03,2.666523877360506625e-02,8.906007542731693150e+00
-5.310875341482720891e-02,2.261884441724185471e-02,9.050376994918556406e+00
-1.300756615295860230e-02,-9.809989139877295372e-02,9.021462349093100741e+00
-5.531748233585249627e-03,4.704487761232158810e-02,8.984693136181144624e+00
5.148853776568645436e-03,1.161450004614014882e-02,8.937664989080854383e+00
-2.069852554700321243e-02,-2.656450663293954267e-02,9.011076340432907728e+00
4.964164586219085157e-02,1.628417311154734329e-02,9.017577331966638354e+00
2.008825727499395294e-02,3.270285086839001126e-02,8.987951839932661002e+00
3.151601020713626355e-02,-3.499583201248829961e-02,9.014103277627484090e+00
-4.629456503125139316e-02,-3.169905587502141325e-02,8.987220383415872149e+00
4.178958657960303580e-02,-1.778358591917588924e-02,9.002454882283522863e+00
1.931416777811901034e-02,-1.516007937697894971e-02,8.969834697085556030e+00
-2.829196633861322946e-02,6.937317721092799150e-02,8.979312988323071565e+00
-1.446875502292022803e-02,-5.982203433567031409e-03,9.042157214378143237e+00
-4.336774983156701374e-02,1.264819475818788723e-02,8.892209533633547380e+00
-6.358696804784297330e-02,4.100345272588417495e-02,9.047077636792378641e+00
4.531167119171042312e-02,-5.480184757285520673e-03,9.047834340652029184e+00
5.819812672511845419e-02,4.025619618458078919e-02,8.949229437716677893e+00
-5.594105076568717250e-02,-4.166729769884637558e-02,9.005871122192910860e+00
-7.115705289762121188e-02,-7.279133770188370156e-02,9.035855011750335564e+00
2.116035415372109069e-02,-9.222503316701727294e-02,9.040904722380883385e+00
-1.161653491106643017e-02,4.876912675685050880e-02,8.982818791742012365e+00
-4.673116131320351890e-03,2.847465118984881041e-02,9.085229663557434776e+00
2.018739378336993628e-02,-1.511099940410160977e-02,8.982322922161666057e+00
2.445430821274031594e-03,9.931344115620462792e-03,9.034952568072053936e+00
-7.463504024770614698e-02,-3.294030671380284575e-03,9.017299560057884023e+00
6.535854626181417104e-02,-3.785412578378021670e-02,9.014857758982374847e+00
-4.048136956945448672e-02,3.839343418526072749e-02,9.011130203705436159e+00
-1.329590635317461425e-02,-6.417539814560550837e-03,8.994119082457714853e+00
-1.569825468163302956e-02,6.506954312462867596e-02,8.994888939583089993e+00
-2.024460460146277133e-02,6.377446912706999545e-03,9.112363616981436820e+00
2.078456812155216049e-02,-3.012035741605843114e-02,8.968365572790647278e+00
-8.607886765067182533e-02,-9.703660000517819184e-02,9.007293948584948140e+00
6.267306236435329914e-02,-4.960638705423958683e-03,8.977667944989807580e+00
4.202440804425457838e-02,5.632260919399359467e-02,9.031959285761811174e+00
2.074338301840976395e-02,-4.629577917575726509e-02,9.023510767808232913e+00
5.042451661297293192e-02,-6.969987120537111946e-02,9.005668062460554069e+00
6.653556889375690508e-02,-8.630654495396909709e-02,9.071139617046371839e+00
-4.342675326746794212e-02,2.503185035447360804e-02,8.980380899450517873e+00
5.275387801031270266e-03,2.699010425380581404e-02,8.981894052172224363e+00
-1.797114787938635522e-02,-5.114072157417389602e-02,9.009044076650258859e+00
-1.139901332589188764e-02,-3.775239265040492703e-02,9.056071576285210867e+00
1.706481886275494977e-02,-4.015252026409148189e-02,8.983670923473832559e+00
-3.195167401225071369e-02,-2.005241254716697355e-02,9.075821840486993253e+00
9.802754068696021422e-03,2.399789309959313166e-02,8.947100352175043625e+00
-2.922865086640031272e-03,-4.957728818136813292e-02,8.946934096940896808e+00
1.050015114484509002e-02,-6.446648704896910942e-02,9.004561968503585589e+00
-1.675973815792965865e-02,5.646403890089424227e-02,8.993762757971341060e+00
2.713043398249076130e-02,-4.172702141668335751e-02,8.887560493898714498e+00
-1.594821574108903905e-02,1.323425173702679966e-02,9.037203815907759008e+00
-1.209858349799645960e-02,-1.066038100077353794e-03,8.983869746595569694e+00
1.305252602145307592e-03,-9.869837715416168375e-03,9.033195394179427851e+00
6.530883876450198355e-02,-5.814684377951943178e-02,9.000253460156088181e+00
5.878698770842524096e-02,8.771125319048909963e-03,9.016101121923824735e+00
-1.042885395171443651e-02,-2.543426683777621350e-02,8.956147372111601612e+00
9.941829191445974642e-03,-4.316858375536643255e-02,8.937821143468022811e+00
6.148447753118582715e-02,4.789123082599960890e-02,8.961976322591572952e+00
-3.706917811469945256e-02,1.434931800097378335e-02,9.031592471767710961e+00
4.935385922237470885e-02,-7.707347278559127830e-03,9.007893812259020194e+00
1.743367857950482019e-02,-3.892620907693643967e-02,9.021191091541581386e+00
-5.626965753460931065e-03,1.270580911952456406e-02,9.104049502531738725e+00
2.961383792327575495e-02,4.339556539268113466e-02,9.038970858174280920e+00
-1.900219356821811201e-02,3.147150165758614421e-02,8.983505567591386409e+00
-5.648009875107771333e-02,2.165052128677890167e-02,9.002559341300662155e+00
5.930647149156915987e-02,3.911417203391490127e-02,8.994723975628728496e+00
-1.787257646575579617e-02,-3.980113621275772201e-02,9.022219272855272365e+00
1.884000701320065474e-02,2.098486028265656583e-02,9.039155319242155429e+00
-3.872584961128622966e-02,-5.410719334514422357e-02,8.953277036681768664e+00
9.804573695395899305e-03,1.008536568142910476e-02,9.027888375597454385e+00
1.460447110696329667e-02,-2.237578894388386058e-02,9.050955664263632627e+00
-7.110364799372567712e-02,-4.110435321777489159e-02,9.027474036156341697e+00
2.587628839177264634e-02,-5.523648303222707806e-02,8.956319502107547237e+00
4.284879508315877356e-02,2.428841064062147934e-02,8.995796667163480365e+00
5.506021954408869129e-02,1.499070183435281464e-02,8.966151981139047322e+00
-8.282745386031220569e-02,2.187556900887237948e-02,8.995267085718356981e+00
-7.559466128986207061e-03,-6.860248508176171323e-02,9.069735598246170483e+00
4.448472731499061167e-02,4.025746604785369193e-02,9.063840936114932134e+00
4.823162356305969040e-02,-1.697287896515716279e-02,8.974834991806362794e+00
5.123479467082135003e-02,-3.499562493578849132e-02,8.997960507361511873e+00
2.982788669874408133e-02,-2.101796323452622892e-02,8.949970636440633953e+00
3.042839731407647602e-02,-2.162585675157892989e-03,8.980859778558366813e+00
-2.490343000811392690e-02,1.883788689626329088e-02,8.985125393643210501e+00
-3.648022027022614078e-03,-3.672262668197302793e-02,9.106315488084913312e+00
-1.665710878574011913e-02,5.999513025861292342e-02,8.987047999167630863e+00
4.629488989285388684e-02,-2.943671242670799909e-02,8.933112120708312176e+00
-6.633432460875431438e-03,2.648114153193625517e-02,8.970972106115382871e+00
-2.738170133901501185e-02,3.523880348938746021e-02,8.948466011772735484e+00
8.265920692122133429e-02,-4.470127407938334629e-02,8.986270154510540564e+00
2.646907152200429422e-02,-9.056861372511215702e-02,8.987796221448139278e+00
8.859672407493757174e-02,-4.686039121865774766e-03,9.009400349873628144e+00
-6.363569640437631222e-03,1.029336940708957815e-01,8.908748674671368661e+00
1.864973325368002310e-02,-2.130177007878798767e-02,8.988331850078298046e+00
-5.112525817290711205e-02,-6.924206042995516286e-02,9.070469125622176776e+00
-1.424752120783230429e-02,-4.181711311870270342e-02,8.962962599060938729e+00
-5.443056148694654789e-02,2.512404603389171293e-03,8.988564448187606359e+00
5.470793248255405306e-02,-9.423490923548098752e-03,9.070572197719407370e+00
3.086877665926963249e-02,-6.298266492789662547e-05,8.994751003371561637e+00
6.705168701198885479e-03,-1.370387452934052931e-02,8.953702574714879958e+00
1.360375003531944307e-02,-3.108506082678957200e-02,8.985022127268560865e+00
3.106926702287845024e-02,4.728453432172606552e-02,9.005888024564253413e+00
-3.786343117880263537e-02,6.568880753956847507e-02,9.013246020538039360e+00
-4.476754799926040834e-02,-5.367087448193080118e-02,8.978797228352734194e+00
5.546789467695704967e-02,-1.945484504277062744e-03,9.002687430728553153e+00
4.081890890188589333e-02,3.829097499165169671e-02,9.020456559769115756e+00
-3.560275126299834031e-02,-3.694778231343066183e-02,9.057071041791447286e+00
-4.901458057598659379e-02,-3.566627024706035126e-02,9.021928453075702237e+00
-2.105859642203122828e-02,-3.515827099368579872e-02,8.941355311011804474e+00
2.055676908837916067e-02,-6.602631212363350988e-02,9.084239402695242660e+00
7.269940109305218778e-02,4.230940986005293086e-02,8.987568449800772186e+00
-3.162984494669911131e-03,-3.762820604303099281e-02,8.984030184088634741e+00
-8.550582831372695661e-03,-6.484368982334954602e-03,9.020741039161128683e+00
9.826603419205643883e-03,4.204336596317372055e-02,9.069531743385738309e+00
-1.663899059201880484e-02,1.946799424801279321e-02,8.985067940610344195e+00
6.341427863463684755e-02,2.465094025516293211e-02,9.037695747413289737e+00
7.698024763160091211e-02,-3.058875748646854020e-02,8.995732762919010028e+00
5.304430628716313989e-02,3.793776549805627507e-02,9.067512701334090153e+00
-4.735062741048581131e-02,4.103860093925908170e-02,9.000625696817985855e+00
-5.125326692684315649e-02,-3.618769312527059939e-02,9.005309247170208309e+00
-2.382188186722038886e-02,-3.523581354957554257e-02,8.919124065185759065e+00
-3.719351642737922514e-02,-4.945608519802114494e-02,9.012806897641729265e+00
-2.899575816181956464e-02,-6.677843042547976227e-02,9.029210254200524588e+00
-2.415100347766928682e-02,-2.762061725808096987e-02,8.992554599497051271e+00
2.310084928890901446e-02,8.568387004499120052e-03,8.981455218414291508e+00
-4.782725831295329966e-02,7.537276994688947573e-02,8.999772712915625306e+00
-1.001028900098020757e-02,2.340224023818779158e-04,8.976188843813423190e+00
8.401517276933806455e-02,-2.283097727678913905e-02,9.014951191380379925e+00
6.197368080463052514e-02,1.271382338499198227e-03,8.926613750312222706e+00
-2.461489310497273764e-02,-3.451884062768365707e-02,8.986035114259918188e+00
2.099062201863742538e-02,3.884336875126843773e-03,9.065013542011387315e+00
5.850423830354709032e-03,1.056941253072967357e-03,8.899625706896042487e+00
-3.780363719399807559e-02,4.754806257498556121e-02,8.938542523777348592e+00
-6.156692278640702592e-02,3.189962958013664585e-02,9.017736647968623842e+00
3.375551752094716612e-02,3.974334765663133096e-02,9.007436576989752197e+00
2.217010240379554964e-02,-2.387442292019087073e-02,8.893979268484176970e+00
-1.250903145967597122e-02,6.338721270156058574e-02,8.941246035106978240e+00
-1.759543735001009926e-02,-2.976774541993974441e-02,9.030061789426072849e+00
5.225373744666341608e-02,-1.057721332283111104e-02,8.983309002621640005e+00
-2.277097095223559395e-02,-8.943757481997036130e-02,8.982387120882714626e+00
2.244302154364836294e-02,4.480989894376802979e-03,8.964917363045046272e+00
-2.285200906358826611e-02,2.731829498788296111e-03,9.057524457429170894e+00
4.851944541118881349e-02,3.304768484228549213e-02,9.026724734885679169e+00
2.802015080130603256e-02,3.431648322184134570e-02,8.985949409684291567e+00
-2.279345526726191118e-02,2.445560295863286743e-02,8.944305457161355832e+00
2.644608504999455822e-02,-8.099885977252007860e-03,8.980430181070117257e+00
2.416706807042299544e-03,-1.582757337674866108e-02,8.992591507572997855e+00
4.184048754586473101e-02,2.856303040518507527e-03,9.045557214581263494e+00
-4.291366278315273536e-02,4.647212378345499939e-02,9.024916516324148930e+00
-4.758584666457819218e-02,-6.519273248468055934e-03,9.040492175059119617e+00
5.697814983874971428e-02,6.696861268505874265e-02,9.001555367104604244e+00
5.261713089275085048e-02,3.115207621062709292e-02,8.963376631020095076e+00
8.501872160750312962e-03,-1.782097320355070444e-02,9.061249787676105782e+00
-6.391184161264362729e-02,-6.007167842794191442e-02,8.952290464621333044e+00
2.758146211927032295e-03,2.465072170370170845e-02,9.077921504170545219e+00
2.695343885318052593e-02,4.133783846970006226e-06,9.058744796835336288e+00
2.319403721251536189e-03,1.484869787422208806e-02,9.026960622630182840e+00
4.115482857635720249e-02,-5.969360064342077617e-03,8.985411775772378817e+00
3.826136431033114182e-02,-2.079490151297052822e-02,9.041072908386297513e+00
2.505099130668498458e-02,-1.217972976235519311e-02,8.985746422343821038e+00
2.528722916502747567e-02,-1.351408069538657421e-02,9.048338752603179103e+00
-9.933369795581179981e-03,6.704092233929577135e-03,8.969836231562254625e+00
1.090207148800253004e-02,-7.670614601609543337e-02,8.919771524488528058e+00
3.358322289615307127e-02,-3.787766252357879782e-02,8.988786642369801072e+00
5.542915694188909476e-02,3.215092157663944350e-02,8.960731460052880237e+00
-6.241712487439163987e-02,2.128201257628557080e-02,9.027893294421433623e+00
-5.568609484560290562e-02,-6.155729378419205755e-02,8.984818137439276597e+00
2.239599227219401384e-02,1.325189820394269760e-02,8.986181704811748716e+00
-4.874614509766807269e-02,5.435228650087324531e-02,8.967891087021499175e+00
6.216781378106849693e-02,-2.320830041383817322e-02,9.034708961466861865e+00
2.904861791478978786e-02,1.056083917933714695e-03,8.956410746096084452e+00
1.619712147024972987e-02,1.910329250878356130e-02,8.997041475049325499e+00
1.566277091809065158e-02,-1.272701176086999189e-02,9.011133879653177914e+00
7.464175918167138650e-03,8.328820049534756131e-02,8.984636093616551022e+00
-6.396520016164665423e-02,-3.091669599768624363e-02,8.996061445344478713e+00
1.633406586657518492e-02,6.310785368420304686e-02,8.968040147204996870e+00
2.858097663932748084e-02,1.718087689589209432e-02,8.954153095935982520e+00
-8.024675798519390058e-02,-5.278874328344670269e-02,8.988920970468882388e+00
4.747481675619048130e-02,-4.104060112701411051e-02,8.958882131433279383e+00
2.739934387536727134e-02,-5.722230810260131584e-03,9.028490948185305953e+00
-7.125445083094144628e-03,1.258528991901374135e-02,9.089015923003502806e+00
-2.094264928672173731e-02,4.736673936005914715e-02,9.051909853201824063e+00
1.301067070949886613e-02,2.877548801082337182e-02,8.944359205093700638e+00
-2.586777438473595106e-02,8.019547688074248060e-02,8.963706450120991320e+00
-1.527087506393968140e-02,3.174718126316340011e-02,9.001885531866399504e+00
1.516451389458031403e-03,2.616826063062584889e-02,8.983264582974577195e+00
-4.035541506559123942e-02,1.975234707842915896e-02,9.012135185008078864e+00
-4.954725716851574036e-02,4.046246957872245802e-03,9.021115234687973938e+00
-8.487467477231041418e-03,-3.359699951967982587e-03,9.016440771008220167e+00
-4.573947803978807569e-02,3.713225136041291979e-02,8.952333244456868400e+00
5.552351056562526699e-02,1.954927508312813769e-02,8.983468729712010159e+00
2.177068308751935882e-02,1.452497473811466093e-02,9.032263600328374054e+00
-2.708025195072598021e-02,-1.524779935139498367e-02,8.956964159706050310e+00
-2.873194277007187769e-02,-4.030490259029156051e-03,9.001213361554269099e+00
1.575265764012524078e-02,-4.953324153840867050e-02,8.992613457785594733e+00
-5.875990053703631808e-04,5.111304614972944638e-03,8.999566815850064572e+00
3.985843517395240565e-02,-3.530246488174248326e-02,8.963771098371386969e+00
-6.810290580188963806e-03,-6.635209866109281762e-02,9.004441183966454432e+00
1.923351880468858119e-02,9.750125937288463968e-03,8.992292847700088743e+00
-1.781140189779350722e-02,-9.716159448532032950e-02,8.973857924664892849e+00
1.772170614534291852e-02,-3.525023656925662524e-02,8.991067660385079208e+00
2.653545383200891714e-02,6.310129038660579337e-02,8.966165417228358692e+00
2.753340830155147356e-02,3.186943725155230028e-02,9.011961254809392585e+00
-3.416757102352935282e-02,-1.357138663667035658e-02,9.039200015738853011e+00
3.363734692586269753e-02,2.577269638120434359e-02,8.967493583679132740e+00
6.219142738284968303e-02,-2.270213598287332615e-02,9.061404895710049701e+00
-4.903825375577616427e-03,3.525240279112799857e-02,9.058109396054412343e+00
-3.622320707537245166e-02,3.320168125811984866e-02,9.041828974387136952e+00
3.754107407680522951e-02,-1.933186844606164800e-02,9.037300698670833299e+00
1.368803706908932293e-02,-4.358674913651398863e-02,9.032982985306333035e+00
-3.070649005354950459e-02,-5.625818132990835290e-05,9.015748486839303411e+00
2.943426095506237756e-03,1.435066085208291757e-02,8.976543013491863121e+00
7.549596310684025813e-02,-5.960141095759308866e-03,8.984616843493073546e+00
-3.530362020666019673e-02,-5.841880540364078819e-03,8.967218686109102777e+00
-6.343863876595455531e-02,-3.293367516852137300e-02,8.976627628434686201e+00
5.915631844807806711e-02,-2.815942262140647481e-02,8.939129540857113199e+00
-2.375681874023490361e-02,8.197377111093704163e-03,9.016671277313664135e+00
-2.061127391091732014e-02,4.550852779753045835e-02,9.046756447056843342e+00
1.461193417340352421e-02,-4.367053035763893837e-02,8.990642866507574382e+00
8.372044819318148409e-03,-8.014126602063846583e-03,8.970137121000696823e+00
-1.655175645194074605e-02,6.728170926386298212e-02,8.998002451375295863e+00
-9.524541120873829259e-03,-1.088492672428878309e-02,9.032265394440278428e+00
1.393751709492540083e-02,-4.624791038084202950e-03,9.023659418912943764e+00
9.472718753896986268e-03,-3.657586885221842526e-02,9.032874289844857074e+00
-9.472023467422385073e-03,-2.543133597855604913e-04,8.963413829747162609e+00
2.604094699240005334e-02,-7.335197472523241613e-02,9.013270388493591412e+00
2.621183754535989438e-02,-2.194962956408956327e-03,8.986737864906494622e+00
-5.939768943923305622e-03,-7.041926577393638198e-02,8.946439941966550791e+00
3.731496977397052300e-02,3.819908489599609797e-02,8.939876941258338761e+00
4.922350590240444357e-02,-3.932078748435074989e-02,9.002609722821487637e+00
6.401986109683720227e-02,1.998531667686686327e-03,9.003107357989014403e+00
8.428193763998449717e-02,-1.590034751075689728e-02,9.037141868161445046e+00
2.765977269360796187e-02,1.920062673035666592e-02,9.011721502828367036e+00
-1.789305158381095801e-02,-8.475596296189304157e-03,8.919561472913466460e+00
-1.221229253832285255e-01,1.547769315138321396e-02,9.036996139970026931e+00
-4.527935412088887612e-02,-1.364826324869546081e-02,8.982170205399912177e+00
3.662201092491039478e-02,-4.956341133143625510e-02,9.029089961275429843e+00
9.650257132054461742e-03,-3.182582636847420404e-02,8.997301684951864331e+00
-8.176448401917878195e-02,-5.812474116110467881e-02,9.038604925165476089e+00
-1.414256012353194529e-02,-3.675057891754312123e-03,9.071157459959875879e+00
9.013258170844844208e-02,6.377778080924401474e-03,8.930661059948457492e+00
6.250078193441480079e-02,-9.477734017182208592e-02,9.006575768045898656e+00
-7.833340591003058392e-03,5.766390978932665196e-02,9.008035931665858698e+00
-5.272206140219269643e-02,1.843207049909216522e-02,9.084811164688586516e+00
2.695341786209935059e-02,9.995904611357442002e-03,8.949858092839230395e+00
9.955969659579221032e-02,-3.155617910681115384e-02,9.043671565765757592e+00
-1.297714087463172497e-03,-2.126587055879714146e-03,9.059622817041292464e+00
5.694603637539438767e-02,3.914217267001311729e-02,9.037282248752397606e+00
-1.882043154912120889e-02,-3.848212752346590743e-02,8.998698996669789452e+00
-1.956855634043800501e-02,1.436930948674113983e-03,8.890171631097913973e+00
-1.457176190907347136e-03,1.767958678747352796e-02,9.003430405832425265e+00
1.599969066902091203e-02,2.742312799320720945e-02,9.059872333133705880e+00
-3.294077663193149819e-02,6.104312758502185299e-02,9.025208612079451242e+00
-1.529240424281273422e-02,-2.438711629739712724e-03,8.990030221499312191e+00
-5.311749719174963663e-02,-4.061824164115762636e-02,9.020480028563653718e+00
-1.698226953393310035e-02,-2.858935586970746956e-02,8.952307288757822334e+00
-3.703169917717052950e-02,-6.272412895165405122e-02,9.043166997338699886e+00
4.248020274989268256e-03,2.380420221792245092e-02,8.944693923992113938e+00
-6.242726678396268505e-03,-2.494089149753934628e-03,8.979338368182762764e+00
2.261457466368007501e-04,4.405648253282617999e-02,9.077842270753432530e+00
-1.502713826608519446e-02,-2.721830072299244452e-02,8.994754611527129740e+00
-2.192178714118810101e-02,-5.315319242026217417e-02,8.980613035251824527e+00
-9.572381559886104091e-03,2.417238760566133710e-02,8.959864889646972586e+00
9.343795549760076230e-03,4.743650830827773890e-02,8.986008212123651973e+00
-8.060836852187190649e-03,-7.205728340914482888e-02,9.028597152533199832e+00
-2.162633541644411878e-02,-2.949660335807468073e-02,9.026117567178960854e+00
-8.417805372018671850e-02,-8.611817821004559559e-02,9.021377894031981981e+00
-3.412135416612184155e-03,3.028997564155752262e-02,8.994431232042581215e+00
-4.818048312609576889e-02,2.867683518224010270e-02,9.038685540619631809e+00
-1.027444259967987134e-01,7.434968763153962379e-02,9.036669048456834830e+00
4.366808186381369167e-02,-4.458896809925621402e-02,8.899750039403123480e+00
-6.660757605204242759e-02,-3.669399775893662091e-02,8.943667920757951251e+00
5.125938799222690134e-02,5.071078816058547517e-02,8.991476289893917340e+00
-4.481126017028445700e-03,-3.171326157366563536e-02,8.922501017782725086e+00
2.805922101359504747e-02,1.097916666211191591e-02,8.939704553286015098e+00
-1.805138166458709848e-03,7.326689718355579306e-02,9.043981892614395335e+00
-5.737866245102932194e-02,-4.926565002346171979e-02,8.977027319162495189e+00
2.881166803355428296e-02,-1.944168307030611246e-03,8.968073433636488900e+00
-5.941133545972351188e-02,2.539272724127904918e-02,8.957971421197891360e+00
-2.344622971320420649e-02,7.113352447586319960e-02,8.949453170524810375e+00
2.246300515399756934e-02,-1.296279898166793378e-02,8.967702740567119690e+00
6.684550293574184621e-02,-6.276734441546592824e-02,9.016641689794930414e+00
6.403785871816235903e-03,-4.060761892632830383e-02,9.005117103275065205e+00
-4.615019203106551088e-02,3.149458082797038094e-02,8.971630317877515637e+00
1.597940081841851823e-02,1.664341832874900382e-02,9.061227253843517460e+00
-1.015906297613371062e-01,-4.798915223293399868e-02,9.092632761853250756e+00
1.971386080281030059e-02,-4.490537226333529697e-02,8.988135734071498462e+00
5.890766054321721484e-02,-9.720814327894684859e-03,9.084721193862904443e+00
6.030474048449238622e-03,-4.510151679893919380e-02,9.029589585462147738e+00
-2.515314834394222210e-02,1.071770110512555024e-01,8.949815347505801100e+00
2.517833658489164461e-02,3.556114078991080146e-02,8.957590809331172466e+00
-5.733130340526610552e-02,-9.664973489033369669e-04,8.999841799669548337e+00
5.639800225897385194e-02,-1.424069871427491654e-02,8.995688878410836864e+00
-1.061738971809216003e-02,-5.198758373768944119e-02,8.905994970802062483e+00
3.407480649688215263e-02,-3.651500622758940828e-02,8.920084305876164521e+00
-1.019636022847456719e-02,8.012650359831008373e-02,9.000810915786042088e+00
-3.700934683304892611e-03,-2.243673222162734238e-02,9.017772553359352017e+00
3.524860160953333099e-02,-4.582378438657911009e-03,9.005898499567214444e+00
-3.214446503321991694e-02,4.460845695794093263e-02,9.071519974066729830e+00
1.299526202357727082e-02,-2.885103401517052912e-02,8.976833540437963777e+00
-2.657238593201050915e-03,2.810596750600709640e-02,8.939185365671038497e+00
-2.609676122128562134e-02,7.428219749627307071e-03,8.966262543572346644e+00
2.710250971068870265e-03,-1.849339307526500983e-03,9.001943514597151363e+00
-5.512533456298187445e-02,-5.950130630127425935e-02,9.051467017362970324e+00
-1.487730477113601013e-02,1.967320766929043369e-02,8.972534873933243560e+00
-9.380959890477666777e-03,-3.679987740530163681e-03,9.059622442296841882e+00
2.107762756848111443e-02,-2.608797530427829983e-02,9.050624423324826751e+00
-1.324660333103015557e-02,2.350583053762956773e-02,9.030704820025610147e+00
1.111030175102941178e-02,2.838029673237103812e-02,8.938524063685308718e+00
-3.430901489788108164e-03,-6.396872077325173322e-02,8.998947140871839778e+00
1.540747755886003739e-02,2.850408937068802176e-02,8.890963227469919516e+00
4.251155649766822330e-03,-3.641782121701576252e-02,9.022260024740019091e+00
-9.483110211212671808e-03,1.903580080546135448e-04,9.003255620120869551e+00
3.417684440030449404e-03,1.942693459048549023e-02,8.969100969741994334e+00
2.387962320216063805e-02,3.382900157615897907e-02,9.054169136142274255e+00
1.397539602582397117e-03,-2.134593911163387529e-03,9.034406309865108398e+00
2.666531471337612452e-02,-2.241691575030629185e-02,9.000881009904864172e+00
5.355197757496495126e-02,-4.365572957485554934e-02,9.033548912712635826e+00
-5.628126678876951838e-02,4.130443109156629183e-02,8.964682424063928678e+00
8.260626388027469957e-02,8.543852188644550285e-04,9.004307288004634202e+00
5.391116106655356732e-02,-2.052068700185411335e-02,8.998329218221524428e+00
-1.686629497511293180e-02,4.259844244533918939e-02,9.034022404821687502e+00
1.065252011331731773e-02,2.933322978579355495e-03,8.976308552979700650e+00
4.641522815070703994e-02,2.934734453837960916e-02,8.985632271762831635e+00
-9.541931220974835676e-03,-1.990608764504718520e-02,9.043211194082370952e+00
-4.045314303305028170e-03,6.985665176329862447e-03,9.030270280840971608e+00
9.623919727055018497e-03,4.762030577547943927e-03,8.962679370541627222e+00
4.134599294897726984e-02,5.121670975383742913e-02,9.005249149237039674e+00
-1.697447662284483350e-02,4.356480792123924861e-03,8.980185755183178742e+00
-4.396926657937071797e-03,-2.759258079419463563e-02,8.990635990284006951e+00
-7.545571873196298303e-03,-2.181953083145041217e-02,9.073317315922011517e+00
-1.241413048576856318e-02,2.652726299290089629e-02,8.995247200957312117e+00
-5.540881931196826871e-02,-1.076569770790062816e-02,8.998380824437575143e+00
-1.572828866997739647e-02,2.173011309117295342e-02,8.993525786857018645e+00
-8.353885672527042866e-03,7.673347664085100606e-02,8.967135131240139501e+00
3.106918159885091457e-02,-2.153751163045956180e-02,9.034414844570951786e+00
-1.907692936723865557e-02,4.337438191460919745e-02,9.024147905894329469e+00
1.641763466943148633e-02,4.455188208078053602e-02,9.086040664757135232e+00
1.674469916734131272e-02,-1.699059877939757338e-02,8.991695960975437885e+00
-2.308031038934092033e-02,-2.038339598356181295e-04,8.983795277585132411e+00
8.683231535083324459e-02,5.190401283057246434e-02,8.978954697621125192e+00
5.890226515060913333e-03,-3.390405000939650942e-02,9.011550404422202121e+00
3.765527979999825497e-02,6.168087823415244891e-03,9.005047397476314330e+00
9.632475593806697975e-03,8.746943567756804150e-02,9.048637311781904558e+00
-2.388341873940622723e-02,9.293411716379197662e-02,9.041950247947116992e+00
-3.111161161390757837e-03,3.725513334425804152e-02,9.039073591494320326e+00
5.298560402255905744e-02,1.605199720351499146e-02,9.073184053732459731e+00
-8.831787899774934392e-02,1.694032194469619751e-02,8.981067897400622613e+00
7.468080274975172350e-02,-5.390621813222041397e-02,8.925762479014021977e+00
-9.042962792046527198e-03,-2.098048626130603195e-02,9.028453952804326832e+00
-4.334539651286238582e-02,3.986288876436523687e-02,8.986006304807403922e+00
2.771658647737218831e-02,3.790666361237157202e-04,9.055419953160878777e+00
3.268492041696541284e-02,1.492910797596298453e-02,8.974638432527870080e+00
-2.061349697590216315e-02,2.226250269738580534e-02,8.995685693306430863e+00
-2.873418642293220152e-02,-4.912605349509702873e-02,8.983567355991224801e+00
4.057942145936348916e-02,-4.431962296859090489e-02,9.053754965940088439e+00
2.494233494490014774e-02,3.927358591669039001e-02,9.081641151345413832e+00
5.208874614181406570e-02,-6.791183007614128020e-02,8.968666567035263881e+00
-2.815513299799534894e-02,-7.124512583881191172e-03,9.004373858616336435e+00
5.446510701214064137e-03,-4.862979740415225571e-02,9.046253035572537016e+00
-2.414782495990132078e-03,-3.119658930280830994e-02,8.998858962317367371e+00
2.409203728474643147e-02,-3.516371299426387931e-02,9.017974287298722302e+00
-4.267972142088460180e-02,5.029631546883021886e-02,8.951157397483383349e+00
2.703390432437921195e-02,3.950082723072321361e-02,9.020332928964268859e+00
3.712499520630410665e-02,-7.596496298612251397e-02,8.981008634227546139e+00
1.269757096614217758e-03,-3.487567377203399516e-02,8.963680570340482490e+00
5.088663455448444450e-02,-1.399743348248615529e-02,9.001286056320964235e+00
-2.049212807712448570e-02,2.135838881863699398e-02,9.075005067327284181e+00
6.507099775332865488e-02,-6.388475808714098869e-02,8.947074799429431735e+00
-1.914661623513274485e-02,5.680572540393349912e-03,8.937185873867109720e+00
-4.149219482132365799e-02,1.067009924041608104e-01,8.961239761793368785e+00
-1.409904572686030777e-03,3.052182530535052160e-02,9.051565961562879181e+00
-8.991325839889672883e-04,-1.041223991407781886e-02,9.001339529476894086e+00
-1.176631874734410457e-02,-3.854172096821664034e-02,8.978040205450218636e+00
4.328010897908102228e-02,-4.309664572094127656e-03,8.961749280828657405e+00
-1.036091624993301236e-01,-3.210431087973002889e-02,8.944865456874197207e+00
6.943924675194230794e-04,1.581295979018726774e-02,8.981820296485409472e+00
-2.807188299516361063e-02,-3.586620954664321292e-02,9.035343539266458279e+00
8.296395185333645811e-03,3.713824820947844718e-02,8.987888345982138816e+00
2.428780602813883360e-02,5.007043593280041671e-02,9.022599282314969216e+00
-3.646474423339346026e-03,-1.343293072169336570e-02,9.018845045766582302e+00
4.385838741541522173e-02,2.574271806709497318e-02,9.092297686129487744e+00
7.082434482512932339e-02,-3.986955738495889801e-03,9.000578351090796403e+00
4.616959808882260818e-02,-1.063190079471832035e-02,8.975582696000182992e+00
1.161218872743349480e-03,4.831010826723319829e-02,9.044527502327397883e+00
2.302977879995244878e-02,4.092274196953708809e-02,9.033533013070350393e+00
-1.067710039055621944e-02,3.432632051776900867e-02,9.028580605342565235e+00
-2.996959666082685964e-02,6.348272811475848265e-02,9.007855448664928488e+00
-4.900435145256135105e-02,-4.755790418575726354e-03,9.047750285669099668e+00
-5.060747495614468378e-02,3.795398499665487979e-02,9.013372220698977699e+00
4.774177294045594405e-02,-4.183701067634984158e-03,8.994319630229133722e+00
6.484964133476135706e-02,8.729687472971625617e-02,9.091930892472539938e+00
-3.490229803881240295e-02,-5.619413182183274902e-02,8.931605584989162239e+00
2.008762293441794522e-02,4.317695894083264929e-02,8.975718664147949610e+00
-4.071929636512533479e-02,-4.298380613018198786e-03,8.953356829142130380e+00
-3.100099490393041710e-02,1.745678056775474413e-02,9.036138227630246433e+00
-1.311717267702319951e-02,4.595320455286330819e-02,8.910178230436626379e+00
4.394042835012088033e-02,-4.636595707538582189e-02,9.053130786721531820e+00
5.138864239564847752e-02,-1.767204416726020355e-02,9.000215718384536601e+00
3.844830988130801264e-02,4.689386281819926672e-02,9.000919098241666916e+00
5.570755567779349382e-02,-2.086256214185745403e-03,9.048741856303362141e+00
1.088533253094658114e-02,-3.691530725870698776e-02,8.972518457279798909e+00
-4.052782126708271045e-03,-8.511018913348787629e-03,8.965825549104419423e+00
-3.518293160700438488e-02,-6.223144440291520155e-03,9.002373061762554585e+00
2.507113735744938635e-02,-4.253975321455812780e-02,9.020646724928580440e+00
-7.451695533309150854e-02,2.675687503884182500e-02,8.996828129290705078e+00
-4.075616010579276305e-02,-5.141577875326671515e-02,9.055507833565975773e+00
-6.955495316022083929e-02,-1.859244441004024098e-02,9.009456382299333654e+00
8.322699414219397740e-03,6.247181952718956072e-02,8.951489990685232101e+00
-1.106239296072430989e-02,-1.926691582765035354e-02,8.958551431910610319e+00
-7.866913514451837064e-02,-3.516630036804180987e-02,8.897420369645349325e+00
-2.590560512411190994e-02,-5.141969789015862075e-02,8.994277716551600577e+00
1.064378665412549045e-02,-5.804438013659779516e-02,9.038804630079729563e+00
4.725370134366762946e-03,6.680226402227849858e-02,8.907093902123113693e+00
8.047128049929162807e-02,2.634946617387024653e-02,8.973901515796029571e+00
4.572079213906674044e-02,-6.352382812487447628e-02,8.976119156989783576e+00
-9.435440723126696516e-02,1.652879644902035400e-02,8.945616229449342427e+00
7.988766502592699326e-02,4.414024973215645124e-03,8.982113296053940488e+00
1.726069722554262817e-02,1.017523838318136475e-02,9.031603367515225855e+00
-2.767027575501780981e-02,6.212415652648399511e-02,9.027891865980908648e+00
-8.330527664416895531e-03,-1.972485833183378404e-02,8.968576044313877560e+00
4.182583081570887679e-02,-3.839987805403244359e-02,8.916754279715263465e+00
-1.102614448479835585e-02,2.306003400719474489e-02,8.989375493742805645e+00
5.463780147144297467e-02,-3.543777279897004223e-02,9.006507633641254174e+00
7.342561076780576568e-02,6.599064086582201449e-03,9.039578342804478694e+00
-1.599664936789461922e-02,-7.380734499218931724e-03,8.920865228506514200e+00
4.146940357842777980e-02,1.519968447067235676e-03,9.041356763305232747e+00
-6.965898639903807255e-02,8.413810112738022776e-03,9.026210297653182835e+00
-1.825828610302791810e-02,-2.072499473527668334e-02,9.035939892324339695e+00
-5.858720149773270075e-02,4.278513091894754761e-02,9.090900182931815010e+00
-5.612586931159855436e-02,-1.047162726899510772e-03,8.990250598862076004e+00
1.406525199063761271e-02,3.006188939315650871e-02,8.925765480981281641e+00
-3.592868193865027260e-03,9.560478578065323418e-02,8.959250852244423413e+00
-9.215549928383674760e-02,-5.266458500523940600e-02,8.971461538372309974e+00
2.499997633905450684e-02,1.609873545926284941e-02,8.996043668576835017e+00
7.570805054971849191e-02,-1.920910472914052342e-02,9.091472610287018696e+00
-7.906981647176794525e-02,5.753761119173798899e-03,9.054649517181996288e+00
1.216612134110652867e-02,-3.438519127299388689e-02,9.010315746149977656e+00
-6.174620304517838137e-02,-4.938060553646938383e-03,8.979235964165715345e+00
-1.994574127297864957e-02,3.691998163075183026e-02,9.078588605067114514e+00
-1.276778692794816421e-02,-4.018445883060284274e-02,9.034633482246437808e+00
9.126109494023867908e-04,2.612483270027958493e-02,8.906916516604511003e+00
-8.460509342001855176e-04,1.866999945040089676e-02,9.084716286471268276e+00
-5.265449500892547402e-02,-2.058384469147557516e-02,9.026675961205402388e+00
4.553977070551060852e-02,-4.993553063351210269e-02,8.995905984336873829e+00
2.078909245932251265e-02,-3.171027079506365948e-02,9.091969938283378738e+00
9.856022023031799431e-03,7.133170022423450385e-02,8.986944105188896970e+00
2.303911219978781524e-02,-3.770303967920044658e-02,8.901745593449978955e+00
-7.491909470323953116e-03,-1.174466320911631001e-02,9.026131055124636760e+00
4.437243307231673178e-02,5.153549625958290387e-02,8.976458476951133747e+00
2.166921140146525933e-03,-3.493831447985244060e-02,9.023646307645760700e+00
6.430397140452613625e-02,-7.670775432994088316e-02,9.005705961062211884e+00
-4.451678532903156210e-02,1.264991996412837168e-02,8.983355226897126400e+00
7.319105651307308835e-02,-7.160841378760809950e-02,8.997901713633293497e+00
8.949387150289141168e-02,-1.600799222117055970e-02,9.005334531090582573e+00
5.990820381495669256e-03,-1.120208274763989046e-03,9.080628798800075785e+00
1.628713589325407867e-03,-7.745248035755809488e-03,9.008888969998222862e+00
3.258138929505946524e-02,-2.157527797597958916e-02,8.951352809445774383e+00
-5.119055548732517197e-02,-5.591765156372206086e-02,8.971137601619219026e+00
-6.233357850411735956e-03,-8.026191499301744969e-02,9.046331930530522314e+00
-2.551508681288469638e-02,6.756000331915631985e-02,8.985053404349800488e+00
-1.706914388410938482e-02,2.537466131743761760e-02,9.042482951790136170e+00
-1.364435402145956246e-02,5.323566509288093720e-05,9.055210851029976027e+00
6.318924243866276547e-02,2.179728283196660094e-02,9.025417849514628443e+00
1.663984328187315814e-02,-3.274144530599201741e-02,8.972932362466973899e+00
-3.017240176584538142e-04,3.231361655534660537e-02,8.995100192430335539e+00
1.088664381125595097e-02,-4.052534302021264245e-02,9.005828339463972654e+00
-1.006841384101743106e-02,1.578453205340651921e-02,9.047301886203806376e+00
-2.288978051246157858e-02,-3.416040450512009691e-02,8.968506911183423469e+00
1.569576679319034315e-02,-2.121939754572479270e-02,8.991267845121528879e+00
-2.304736846100848002e-02,-4.460749076299286298e-03,9.038626629102891386e+00
1.546492711880578970e-02,-3.528248187420018195e-02,9.036207594191287384e+00
-1.987149182155452040e-02,5.328580450231479998e-02,8.919905923613100640e+00
-2.420364934282969241e-02,3.204060320906507164e-02,9.017811391352607231e+00
2.800460193995633895e-02,1.847935041789809316e-02,8.991232659644596836e+00
3.055288022253904029e-02,-8.362905748671495471e-05,8.983175630571885506e+00
-7.873060802775876110e-02,-2.432870171720081381e-02,9.008481005217813475e+00
-3.675025961536862017e-03,3.977919261895970955e-03,8.950698902914806965e+00
2.861872400229480140e-02,7.252344144379118882e-03,9.074468315679968811e+00
-4.291905174899247194e-02,-1.789833148416034372e-02,8.987471569151114892e+00
-5.230109479711458204e-02,3.415787083827353382e-02,9.035994056431484012e+00
6.430559843406014053e-02,2.211768933555403882e-02,9.015005111684819994e+00
-1.520695588680737176e-02,-1.455730734057614391e-02,8.983906748879491033e+00
-2.610569938057927600e-02,-1.848211461641880923e-02,9.009093108771548231e+00
-7.253249477996673300e-02,2.378701853769700156e-02,8.959806098773157146e+00
1.897698550039701726e-02,1.387403379001553132e-02,9.022056108049572032e+00
5.856495221572692589e-02,4.193132821148447265e-02,8.972311313151152490e+00
-3.044679540256362438e-03,5.690641044257906817e-02,9.034555656758133324e+00
-3.755738088548105091e-02,-4.734045313997097687e-02,8.999344134291023423e+00
8.468580777297239452e-04,-1.797962456385863994e-02,8.977510419275750664e+00
-2.984627598648076363e-02,2.824126528793854604e-02,8.978040746822676610e+00
-1.371694936116539185e-02,-2.905586806041663903e-02,8.975364595046494642e+00
3.394879250395677756e-02,-1.295622548844233696e-02,8.979325500549121486e+00
6.851574050512344860e-02,-2.754135712428278093e-02,8.946361741127860867e+00
-1.297371342237690905e-02,-2.217549018729968874e-02,9.006568750608034080e+00
1.131749757598993350e-01,-6.198689659864047713e-02,9.050402603862458761e+00
-1.801163183983959734e-02,-4.738841543381642346e-02,9.053425662567759602e+00
-2.407527565542924228e-02,2.136168320024706309e-03,9.013176971256156023e+00
6.685397775021213913e-03,-6.039181911264798752e-02,8.956018654805895096e+00
3.581948960368181584e-02,4.826109857291603633e-02,8.977238731926860282e+00
1.232707454560978515e-02,-3.393276446245312855e-02,9.034932031262838947e+00
3.634766651021905520e-02,-1.912407232846059443e-02,9.007081170308664397e+00
1.072809935034081934e-03,-2.954944103214886611e-02,8.932435103981243074e+00
9.557810238960761469e-04,6.957211836443866204e-02,8.921752445019203392e+00
-7.014581956719855016e-02,-2.912702753573213899e-02,9.017148140933930023e+00
-3.231712502897985534e-02,-6.045939994693143305e-02,9.020255023652079984e+00
2.302740857442814662e-02,3.650701137470809682e-02,9.027988639640593505e+00
5.693584329681174866e-02,6.095476486005235728e-02,8.995133473343134511e+00
1.269856275586477533e-02,-1.320329899685931431e-02,9.049946547847763867e+00
1.173296147139891131e-02,2.466299154961382536e-02,8.991486222432580888e+00
4.821657245576360488e-03,4.565218838656334016e-02,9.010351368852923315e+00
-2.610067032738484089e-02,-8.255419361336825690e-02,8.976842347091219310e+00
-1.092954226457621900e-03,2.682500207327394998e-02,9.017763582882080797e+00
-6.394441030134291604e-02,1.946937312424585134e-02,9.032398871663026796e+00
1.781735269034450883e-02,-4.182043419417737912e-02,8.976840999115223596e+00
4.121787797937034870e-02,-3.679062928756213213e-02,9.006920668688533027e+00
5.401950505598126714e-04,2.427362886441256085e-03,9.010900850027935505e+00
-1.239995192450184767e-02,1.258500281227758512e-02,8.930515070965705959e+00
-1.615643188425087626e-02,-1.953737191947132329e-02,9.059108197438382248e+00
6.132658799217236695e-03,-5.593001264900360203e-02,8.898829898699723628e+00
-4.244700808876999965e-02,-2.049336023983404712e-02,9.028709009473089964e+00
-5.686810283028270047e-02,1.507113465470512337e-02,9.045791250270374562e+00
5.709816881446121324e-03,-3.664562347054636099e-02,9.033832842209671199e+00
-4.781375759650718926e-02,-2.005417917819729903e-02,8.998550886622371792e+00
-7.982975037906191174e-02,1.879017666035143197e-02,8.983673433704383982e+00
-5.676567052356137205e-02,1.068534023924064963e-01,9.006596484734158636e+00
-2.811775548627979283e-03,-3.167398839380982994e-04,9.064815642431168996e+00
-1.920856006392350143e-02,-2.031834326029163112e-02,9.005501493131966129e+00
-4.130020329032597914e-02,-2.150582812387835663e-02,8.951595012512736815e+00
1.438158353628232917e-02,2.725611860232140735e-02,9.000019596235492969e+00
1.487088736182181140e-02,7.326105827676174242e-02,9.034968292265213918e+00
2.802310675026586234e-02,-2.778997150058228928e-03,9.039841581633160317e+00
1.508571890122437087e-02,-5.768159912602423452e-03,9.014919684452898707e+00
-1.357671996761333419e-02,-8.374778674277151558e-02,8.984091288712805934e+00
3.857822636303893937e-02,-1.285848910691305205e-02,8.943417615251950892e+00
-3.276384320971087449e-02,-3.655864792713656858e-02,8.979050093002879152e+00
3.229501531697041156e-02,2.994441154693297524e-02,8.962563584006323580e+00
-3.373134230864663352e-02,2.183636962855486918e-02,8.937596433597411405e+00
3.548365946897957118e-02,-1.943010376481296708e-02,9.035064545660020485e+00
3.638150863569547533e-02,2.455933348541405881e-02,9.004720834365519622e+00
1.529676193716670088e-02,-2.006706922305347141e-02,8.988172986962835509e+00
2.105363011043750662e-02,-1.336816255881890375e-02,8.906519094549993909e+00
1.411069311445032823e-02,5.409915554142128574e-02,9.009959869743786598e+00
1.299443808940077376e-02,-6.425256429463115093e-02,9.027349461337200509e+00
2.300658290361027800e-02,-8.244860548857782523e-02,8.965718738460411785e+00
7.517412905325655814e-02,-3.179842978245463886e-02,8.985225408563646710e+00
1.822522443613211474e-02,3.057718235871064241e-02,8.993129767336764502e+00
-5.675328033976065334e-02,6.818460391062179963e-04,8.981207784124441318e+00
-3.024886269937668640e-02,-5.871851815600950125e-02,8.981264404127719203e+00
-1.997429292714366852e-02,-1.053551144573128678e-01,8.962013470495140410e+00
1.388380900859724487e-02,-3.194984235758827062e-02,9.064081158413268113e+00
-5.027371241063816054e-02,5.345722163974795348e-03,8.986599083781719344e+00
-9.012109428360315019e-03,-2.523201757201578785e-02,8.975048743169551813e+00
2.994378512528899153e-02,-2.137476582306780531e-02,9.007724828332007050e+00
1.044387244080262865e-02,-3.769527434176302150e-02,9.020849861068898079e+00
2.758131687345068833e-02,1.598135455549791473e-02,8.970652593630203953e+00
1.462881051475971306e-02,-1.236946013547904621e-01,8.986922625413399146e+00
7.057997163843088284e-02,-3.634128895238576684e-02,9.007335502059373056e+00
3.728233109145664362e-03,-6.975252175042559455e-02,8.968173410184594019e+00
-4.099555419865969635e-02,4.025737862931161315e-02,9.037997671005406630e+00
-2.720259969978746500e-02,7.639006862888876939e-03,8.975521144822284469e+00
3.953864844751173169e-02,1.400063474505390815e-01,8.984427941275791696e+00
-6.735884984543030578e-03,3.696751633237427975e-02,8.973926006694105340e+00
1.155787872337567246e-02,1.021842959855439464e-02,9.017289853797812782e+00
5.409907893730070243e-03,-5.655136074724475409e-02,8.991901899922977393e+00
-5.035970846534047751e-02,-1.983017190048900688e-02,9.043739624918533337e+00
2.731083603993020997e-02,1.022757539044552993e-01,9.001048253362968765e+00
-1.100166187758754022e-02,-3.698413863935854501e-02,9.017070518297265025e+00
-8.013498908070260454e-04,-2.868847720445059576e-02,9.000037741827553006e+00
2.470197785598111668e-03,-5.698494744919418292e-02,8.964878723733395560e+00
4.705541735583719520e-02,2.539802946319680635e-02,9.004468408555531767e+00
9.919947399407161998e-03,-1.032154017042538965e-02,8.975846551118737082e+00
6.129749572787406009e-02,5.865587467125805976e-02,8.996253815597128778e+00
-1.731150385546334491e-02,-2.027445435702096913e-02,8.982937947653722333e+00
3.658056142247696763e-02,3.156101762877709660e-02,9.079399251394741910e+00
5.520678228978427582e-02,-2.378821920586799560e-02,8.973623107111848185e+00
3.511191925230344735e-02,-4.103967302144451851e-02,8.992222546275952411e+00
-4.933211609506139850e-02,4.318303341451803362e-02,9.027547971725612186e+00
-1.667619900713643646e-02,-2.895090490709371044e-03,9.049622452536903339e+00
7.183179776822266709e-03,2.241658513223497226e-02,9.005837029469109467e+00
2.719980453594381467e-02,1.939146680553028093e-02,8.977057982424883065e+00
-1.618661344181664130e-02,-1.316380838118811139e-02,8.945381743544521314e+00
-2.649028877956080205e-02,-6.001239212414289509e-02,9.024227955372099430e+00
3.967581981795331031e-02,-1.211836920492442987e-01,8.945134838511247466e+00
-6.306557901337693506e-02,-6.721767998553146439e-02,9.008915892186227126e+00
-3.836585283493473136e-02,1.186218519682383753e-02,8.996521468166768898e+00
5.972153504697753218e-02,2.102498805215622865e-02,9.008409874680420870e+00
-7.947580260822528775e-02,-4.550593339426448752e-02,8.960675469507805246e+00
8.199331196920611742e-02,-2.142331175767010071e-02,8.973993686699818895e+00
6.017502803996450933e-02,1.142297865664883272e-04,9.088943507535667266e+00
-1.775718922144304407e-02,5.696860584894457985e-02,8.932543969393329064e+00
-2.861497766050192376e-02,6.245628219134312376e-02,9.092268436771380635e+00
3.803284434893374616e-02,2.826936243145668042e-03,9.056571050206279949e+00
4.094572478465673127e-02,1.409510847233413043e-02,8.933647805380891427e+00
-5.855292214871055632e-03,2.141501437617017445e-02,9.048033843873271920e+00
-1.183350786815585455e-02,-7.768308467161091913e-02,9.020696481635278374e+00
3.724094869758691473e-02,2.016985818948767786e-02,9.072820278062229349e+00
5.433906669778588994e-02,5.928687393053832383e-02,9.020018052377908546e+00
-3.620707648512101057e-02,1.532828416971606690e-02,9.027999544471530413e+00
-1.104050716294507385e-02,-2.875361091398035904e-02,8.995476838835644529e+00
2.460491148991774540e-02,-4.738634904910942434e-03,9.039675747189665600e+00
-1.964612770421074114e-02,-2.507340681038126851e-02,9.088867895817330123e+00
-1.020284251456292368e-01,-5.523503807381124897e-02,8.942829025172191137e+00
-7.642940683649201462e-03,-3.477741232366102914e-02,9.006034838250496222e+00
-6.883538339976100033e-03,-1.079684596148790081e-02,8.984555694034414230e+00
7.234479293067297423e-02,5.717407005685726240e-02,9.014952456653643864e+00
1.958810934394234794e-03,-6.105684590294729180e-02,9.040398079019384525e+00
7.286406347981271014e-03,-2.488889446333669014e-02,9.011239795651249551e+00
