ref_accel_x (m/s^2),ref_accel_y (m/s^2),ref_accel_z (m/s^2)
0.000000000000000000e+00,2.345107859203655332e-01,-9.793565393360722737e+00
0.000000000000000000e+00,4.465682867384003218e-01,-9.793565098192379637e+00
0.000000000000000000e+00,6.374200342154375809e-01,-9.793564536411574650e+00
0.000000000000000000e+00,8.091866036855781541e-01,-9.793563734679741728e+00
0.000000000000000000e+00,9.637765129495154959e-01,-9.793562716992413542e+00
0.000000000000000000e+00,1.102907428027876779e+00,-9.793561504945939689e+00
0.000000000000000000e+00,1.228125248339232645e+00,-9.793560117977543555e+00
0.000000000000000000e+00,1.340821283360303262e+00,-9.793558573581329085e+00
0.000000000000000000e+00,1.442247711620145534e+00,-9.793556887502701258e+00
0.000000000000000000e+00,1.533531493794916711e+00,-9.793555073913299935e+00
0.000000000000000000e+00,1.615686894493169712e+00,-9.793553145568441920e+00
0.000000000000000000e+00,1.689626751862610687e+00,-9.793551113948774756e+00
0.000000000000000000e+00,1.756172620236185589e+00,-9.793548989387801385e+00
0.000000000000000000e+00,1.816063898513555763e+00,-9.793546781186574179e+00
0.000000000000000000e+00,1.869966045704426705e+00,-9.793544497716972330e+00
0.000000000000000000e+00,1.918477974917542683e+00,-9.793542146514614188e+00
0.000000000000000000e+00,1.962138707950786154e+00,-9.793539734362459726e+00
0.000000000000000000e+00,2.001433364422257277e+00,-9.793537267366096088e+00
0.000000000000000000e+00,2.036798551988257877e+00,-9.793534751021436335e+00
0.000000000000000000e+00,2.068627217539472873e+00,-9.793532190275698213e+00
0.000000000000000000e+00,2.097273013277522136e+00,-9.793529589582233186e+00
0.000000000000000000e+00,2.123054226183877624e+00,-9.793526952949926923e+00
0.000000000000000000e+00,2.146257314541870631e+00,-9.793524283987615320e+00
0.000000000000000000e+00,2.167140090806509711e+00,-9.793521585944075625e+00
0.000000000000000000e+00,2.185934586187312956e+00,-9.793518861744031412e+00
0.000000000000000000e+00,2.202849628772852064e+00,-9.793516114020532015e+00
0.000000000000000000e+00,2.218073163842853468e+00,-9.793513345144129190e+00
0.000000000000000000e+00,2.231774342149078549e+00,-9.793510557249101467e+00
0.000000000000000000e+00,2.244105399368120590e+00,-9.793507752257065491e+00
0.000000000000000000e+00,2.255203347608921938e+00,-9.793504931898262100e+00
0.000000000000000000e+00,2.265191497769539541e+00,-9.793502097730662825e+00
0.000000000000000000e+00,2.274180829658233538e+00,-9.793499251157200547e+00
0.000000000000000000e+00,2.282271225102446621e+00,-9.793496393441271763e+00
0.000000000000000000e+00,2.289552577746883699e+00,-9.793493525720668558e+00
0.000000000000000000e+00,2.296105791871787538e+00,-9.793490649020158756e+00
0.000000000000000000e+00,2.302003681329387597e+00,-9.793487764262767570e+00
0.000000000000000000e+00,2.307311778586694562e+00,-9.793484872279956122e+00
0.000000000000000000e+00,2.312089062864028932e+00,-9.793481973820776787e+00
0.000000000000000000e+00,2.316388615459687106e+00,-9.793479069560097727e+00
0.000000000000000000e+00,2.320258209542141792e+00,-9.793476160106045825e+00
0.000000000000000000e+00,2.323740840963028020e+00,-9.793473246006659139e+00
0.000000000000000000e+00,2.326875205988825801e+00,-9.793470327755890992e+00
0.000000000000000000e+00,2.329696131259373360e+00,-9.793467405799038517e+00
0.000000000000000000e+00,2.332234960750534825e+00,-9.793464480537588557e+00
0.000000000000000000e+00,2.334519904040595950e+00,-9.793461552333605269e+00
0.000000000000000000e+00,2.336576349750019599e+00,-9.793458621513673634e+00
0.000000000000000000e+00,2.338427147637233361e+00,-9.793455688372443291e+00
0.000000000000000000e+00,2.340092862484827840e+00,-9.793452753175820646e+00
0.000000000000000000e+00,2.341592002597142841e+00,-9.793449816163848354e+00
0.000000000000000000e+00,2.342941225448093689e+00,-9.793446877553295238e+00
0.000000000000000000e+00,2.344155522764210797e+00,-9.793443937539956679e+00
0.000000000000000000e+00,2.345248387099379439e+00,-9.793440996300798673e+00
0.000000000000000000e+00,2.346231961752105022e+00,-9.793438053995794590e+00
0.000000000000000000e+00,2.347117175691049162e+00,-9.793435110769650009e+00
0.000000000000000000e+00,2.347913864988017352e+00,-9.793432166753328616e+00
0.000000000000000000e+00,2.348630882107640261e+00,-9.793429222065418216e+00
0.000000000000000000e+00,2.349276194268094642e+00,-9.793426276813367082e+00
0.000000000000000000e+00,2.349856971965748276e+00,-9.793423331094613715e+00
0.000000000000000000e+00,2.350379668647338605e+00,-9.793420384997562067e+00
0.000000000000000000e+00,2.350850092414939141e+00,-9.793417438602517677e+00
0.000000000000000000e+00,2.351273470560420797e+00,-9.793414491982462167e+00
0.000000000000000000e+00,2.351654507646478098e+00,-9.793411545203815294e+00
0.000000000000000000e+00,2.351997437779544065e+00,-9.793408598327070891e+00
0.000000000000000000e+00,2.352306071655414943e+00,-9.793405651407409707e+00
0.000000000000000000e+00,2.352583838900316859e+00,-9.793402704495209221e+00
0.000000000000000000e+00,2.352833826177859855e+00,-9.793399757636533920e+00
0.000000000000000000e+00,2.353058811485301938e+00,-9.793396810873572278e+00
0.000000000000000000e+00,2.353261295020184107e+00,-9.793393864245013347e+00
0.000000000000000000e+00,2.353443526960297572e+00,-9.793390917786403804e+00
0.000000000000000000e+00,2.353607532465666452e+00,-9.793387971530460590e+00
0.000000000000000000e+00,2.353755134180319786e+00,-9.793385025507355124e+00
0.000000000000000000e+00,2.353887972483889257e+00,-9.793382079744963775e+00
0.000000000000000000e+00,2.354007523718053996e+00,-9.793379134269102337e+00
0.000000000000000000e+00,2.354115116590330459e+00,-9.793376189103724982e+00
0.000000000000000000e+00,2.354211946937496691e+00,-9.793373244271123212e+00
0.000000000000000000e+00,2.354299091012653555e+00,-9.793370299792075073e+00
0.000000000000000000e+00,2.354377517443604795e+00,-9.793367355686013909e+00
0.000000000000000000e+00,2.354448097995380795e+00,-9.793364411971149153e+00
0.000000000000000000e+00,2.354511617256517475e+00,-9.793361468664592451e+00
0.000000000000000000e+00,2.354568781356702889e+00,-9.793358525782476676e+00
0.000000000000000000e+00,2.354620225812666057e+00,-9.793355583340028758e+00
0.000000000000000000e+00,2.354666522589471178e+00,-9.793352641351701138e+00
0.000000000000000000e+00,2.354708186455682029e+00,-9.793349699831203736e+00
0.000000000000000000e+00,2.354745680703018262e+00,-9.793346758791614093e+00
0.000000000000000000e+00,2.354779422294030145e+00,-9.793343818245416443e+00
0.000000000000000000e+00,2.354809786495024149e+00,-9.793340878204574551e+00
0.000000000000000000e+00,2.354837111045683162e+00,-9.793337938680581445e+00
0.000000000000000000e+00,2.354861699911730444e+00,-9.793334999684502051e+00
0.000000000000000000e+00,2.354883826662324431e+00,-9.793332061227015828e+00
0.000000000000000000e+00,2.354903737509715711e+00,-9.793329123318461171e+00
0.000000000000000000e+00,2.354921654044936474e+00,-9.793326185968867392e+00
0.000000000000000000e+00,2.354937775699926572e+00,-9.793323249187983137e+00
0.000000000000000000e+00,2.354952281963436533e+00,-9.793320312985297704e+00
0.000000000000000000e+00,2.354965334375353159e+00,-9.793317377370083676e+00
0.000000000000000000e+00,2.354977078321579764e+00,-9.793314442351407578e+00
0.000000000000000000e+00,2.354987644649438217e+00,-9.793311507938147642e+00
0.000000000000000000e+00,2.354997151121526411e+00,-9.793308574139020450e+00
0.000000000000000000e+00,2.355005703724190269e+00,-9.793305640962591596e+00
0.000000000000000000e+00,2.355013397845149292e+00,-9.793302708417295221e+00
0.000000000000000000e+00,2.355020319333358092e+00,-9.793299776511435795e+00
0.000000000000000000e+00,2.355026545452885145e+00,-9.793296845253218308e+00
0.000000000000000000e+00,2.355032145741398075e+00,-9.793293914650744725e+00
0.000000000000000000e+00,2.355037182782808269e+00,-9.793290984712028191e+00
0.000000000000000000e+00,2.355041712902641748e+00,-9.793288055445001916e+00
0.000000000000000000e+00,2.355045786793880325e+00,-9.793285126857531608e+00
0.000000000000000000e+00,2.355049450080215934e+00,-9.793282198957408369e+00
0.000000000000000000e+00,2.355052743822979799e+00,-9.793279271752370008e+00
0.000000000000000000e+00,2.355055704977377484e+00,-9.793276345250102821e+00
0.000000000000000000e+00,2.355058366803101766e+00,-9.793273419458239815e+00
0.000000000000000000e+00,2.355060759233882806e+00,-9.793270494384376690e+00
0.000000000000000000e+00,2.355062909210088762e+00,-9.793267570036070069e+00
0.000000000000000000e+00,2.355064840978055685e+00,-9.793264646420830388e+00
0.000000000000000000e+00,2.355066576359495567e+00,-9.793261723546144992e+00
0.000000000000000000e+00,2.355068134993957063e+00,-9.793258801419474580e+00
0.000000000000000000e+00,2.355069534557042044e+00,-9.793255880048246098e+00
0.000000000000000000e+00,2.355070790956800053e+00,-9.793252959439866956e+00
0.000000000000000000e+00,2.355071918510482476e+00,-9.793250039601717916e+00
0.000000000000000000e+00,2.355072930103625506e+00,-9.793247120541172634e+00
0.000000000000000000e+00,2.355073837333216957e+00,-9.793244202265567466e+00
0.000000000000000000e+00,2.355074650636556299e+00,-9.793241284782236988e+00
0.000000000000000000e+00,2.355075379407219227e+00,-9.793238368098496238e+00
0.000000000000000000e+00,2.355076032099433725e+00,-9.793235452221646042e+00
0.000000000000000000e+00,2.355076616322009819e+00,-9.793232537158978346e+00
0.000000000000000000e+00,2.355077138922887947e+00,-9.793229622917763777e+00
0.000000000000000000e+00,2.355077606065218987e+00,-9.793226709505272964e+00
0.000000000000000000e+00,2.355078023295849476e+00,-9.793223796928764102e+00
0.000000000000000000e+00,2.355078395606948316e+00,-9.793220885195482950e+00
0.000000000000000000e+00,2.355078727491473956e+00,-9.793217974312668161e+00
0.000000000000000000e+00,2.355079022993098459e+00,-9.793215064287553062e+00
0.000000000000000000e+00,2.355079285751134677e+00,-9.793212155127363872e+00
0.000000000000000000e+00,2.355079519040970126e+00,-9.793209246839314375e+00
0.000000000000000000e+00,2.355079725810464542e+00,-9.793206339430620133e+00
0.000000000000000000e+00,2.355079908712697900e+00,-9.793203432908489603e+00
0.000000000000000000e+00,2.355080070135448622e+00,-9.793200527280115253e+00
0.000000000000000000e+00,2.355080212227726566e+00,-9.793197622552698434e+00
0.000000000000000000e+00,2.355080336923649931e+00,-9.793194718733429838e+00
0.000000000000000000e+00,2.355080445963930735e+00,-9.793191815829489499e+00
0.000000000000000000e+00,2.355080540915217124e+00,-9.793188913848061006e+00
0.000000000000000000e+00,2.355080623187503885e+00,-9.793186012796326168e+00
0.000000000000000000e+00,2.355080694049789702e+00,-9.793183112681452585e+00
0.000000000000000000e+00,2.355080754644185426e+00,-9.793180213510609633e+00
0.000000000000000000e+00,2.355080805998595039e+00,-9.793177315290966689e+00
0.000000000000000000e+00,2.355080849038142077e+00,-9.793174418029680695e+00
0.000000000000000000e+00,2.355080884595445401e+00,-9.793171521733913920e+00
0.000000000000000000e+00,2.355080913419870026e+00,-9.793168626410812649e+00
0.000000000000000000e+00,2.355080936185850682e+00,-9.793165732067540930e+00
0.000000000000000000e+00,2.355080953500387153e+00,-9.793162838711239715e+00
0.000000000000000000e+00,2.355080965909789104e+00,-9.793159946349051737e+00
0.000000000000000000e+00,2.355080973905739672e+00,-9.793157054988123278e+00
0.000000000000000000e+00,2.355080977930764874e+00,-9.793154164635589964e+00
0.000000000000000000e+00,2.355080978383144341e+00,-9.793151275298590974e+00
0.000000000000000000e+00,2.355080975621336226e+00,-9.793148386984254827e+00
0.000000000000000000e+00,2.355080969967962456e+00,-9.793145499699713596e+00
0.000000000000000000e+00,2.355080961713390764e+00,-9.793142613452095802e+00
0.000000000000000000e+00,2.355080951118959653e+00,-9.793139728248521081e+00
0.000000000000000000e+00,2.355080938419880088e+00,-9.793136844096112625e+00
0.000000000000000000e+00,2.355080923827851613e+00,-9.793133961001984744e+00
0.000000000000000000e+00,2.355080907533410262e+00,-9.793131078973260628e+00
0.000000000000000000e+00,2.355080889708048186e+00,-9.793128198017047481e+00
0.000000000000000000e+00,2.355080870506114366e+00,-9.793125318140450730e+00
0.000000000000000000e+00,2.355080850066529674e+00,-9.793122439350582908e+00
0.000000000000000000e+00,2.355080828514334979e+00,-9.793119561654545890e+00
0.000000000000000000e+00,2.355080805962070478e+00,-9.793116685059441551e+00
0.000000000000000000e+00,2.355080782511031146e+00,-9.793113809572368211e+00
0.000000000000000000e+00,2.355080758252391160e+00,-9.793110935200413536e+00
0.000000000000000000e+00,2.355080733268215987e+00,-9.793108061950679399e+00
0.000000000000000000e+00,2.355080707632370540e+00,-9.793105189830251689e+00
0.000000000000000000e+00,2.355080681411339860e+00,-9.793102318846212739e+00
0.000000000000000000e+00,2.355080654664972073e+00,-9.793099449005651991e+00
0.000000000000000000e+00,2.355080627447135200e+00,-9.793096580315648225e+00
0.000000000000000000e+00,2.355080599806318897e+00,-9.793093712783278448e+00
0.000000000000000000e+00,2.355080571786172694e+00,-9.793090846415617889e+00
0.000000000000000000e+00,2.355080543425986495e+00,-9.793087981219736449e+00
0.000000000000000000e+00,2.355080514761132449e+00,-9.793085117202705803e+00
0.000000000000000000e+00,2.355080485823449976e+00,-9.793082254371594075e+00
0.000000000000000000e+00,2.355080456641605036e+00,-9.793079392733456956e+00
0.000000000000000000e+00,2.355080427241401875e+00,-9.793076532295360792e+00
0.000000000000000000e+00,2.355080397646073909e+00,-9.793073673064361273e+00
0.000000000000000000e+00,2.355080367876538627e+00,-9.793070815047510536e+00
0.000000000000000000e+00,2.355080337951630298e+00,-9.793067958251857164e+00
0.000000000000000000e+00,2.355080307888306024e+00,-9.793065102684458623e+00
0.000000000000000000e+00,2.355080277701835367e+00,-9.793062248352349286e+00
0.000000000000000000e+00,2.355080247405968663e+00,-9.793059395262579514e+00
0.000000000000000000e+00,2.355080217013089339e+00,-9.793056543422178351e+00
0.000000000000000000e+00,2.355080186534351583e+00,-9.793053692838190827e+00
0.000000000000000000e+00,2.355080155979797141e+00,-9.793050843517645987e+00
0.000000000000000000e+00,2.355080125358476995e+00,-9.793047995467569322e+00
0.000000000000000000e+00,2.355080094678540625e+00,-9.793045148694995206e+00
0.000000000000000000e+00,2.355080063947332825e+00,-9.793042303206936694e+00
0.000000000000000000e+00,2.355080033171470077e+00,-9.793039459010421055e+00
0.000000000000000000e+00,2.355080002356915614e+00,-9.793036616112461346e+00
0.000000000000000000e+00,2.355079971509042913e+00,-9.793033774520072399e+00
0.000000000000000000e+00,2.355079940632697877e+00,-9.793030934240267271e+00
0.000000000000000000e+00,2.355079909732248566e+00,-9.793028095280046585e+00
0.000000000000000000e+00,2.355079878811631389e+00,-9.793025257646419846e+00
0.000000000000000000e+00,2.355079847874402166e+00,-9.793022421346384121e+00
0.000000000000000000e+00,2.355079816923763225e+00,-9.793019586386936481e+00
0.000000000000000000e+00,2.355079785962608252e+00,-9.793016752775072220e+00
0.000000000000000000e+00,2.355079754993546715e+00,-9.793013920517783077e+00
0.000000000000000000e+00,2.355079724018937171e+00,-9.793011089622050136e+00
0.000000000000000000e+00,2.355079693040908140e+00,-9.793008260094863360e+00
0.000000000000000000e+00,2.355079662061382972e+00,-9.793005431943203831e+00
0.000000000000000000e+00,2.355079631082100722e+00,-9.793002605174040198e+00
0.000000000000000000e+00,2.355079600104635684e+00,-9.792999779794353543e+00
0.000000000000000000e+00,2.355079569130408945e+00,-9.792996955811112514e+00
0.000000000000000000e+00,2.355079538160711472e+00,-9.792994133231282206e+00
0.000000000000000000e+00,2.355079507196708555e+00,-9.792991312061827713e+00
0.000000000000000000e+00,2.355079476239458902e+00,-9.792988492309707027e+00
0.000000000000000000e+00,2.355079445289923523e+00,-9.792985673981874584e+00
0.000000000000000000e+00,2.355079414348972389e+00,-9.792982857085288373e+00
0.000000000000000000e+00,2.355079383417398642e+00,-9.792980041626892174e+00
0.000000000000000000e+00,2.355079352495923040e+00,-9.792977227613635094e+00
0.000000000000000000e+00,2.355079321585200169e+00,-9.792974415052457360e+00
0.000000000000000000e+00,2.355079290685829108e+00,-9.792971603950295645e+00
0.000000000000000000e+00,2.355079259798356528e+00,-9.792968794314090175e+00
0.000000000000000000e+00,2.355079228923279366e+00,-9.792965986150766966e+00
0.000000000000000000e+00,2.355079198061055923e+00,-9.792963179467255586e+00
0.000000000000000000e+00,2.355079167212104085e+00,-9.792960374270480273e+00
0.000000000000000000e+00,2.355079136376807991e+00,-9.792957570567359937e+00
0.000000000000000000e+00,2.355079105555519803e+00,-9.792954768364808160e+00
0.000000000000000000e+00,2.355079074748567258e+00,-9.792951967669747404e+00
0.000000000000000000e+00,2.355079043956249674e+00,-9.792949168489078815e+00
0.000000000000000000e+00,2.355079013178845937e+00,-9.792946370829707092e+00
0.000000000000000000e+00,2.355078982416613620e+00,-9.792943574698538711e+00
0.000000000000000000e+00,2.355078951669791643e+00,-9.792940780102465936e+00
0.000000000000000000e+00,2.355078920938604270e+00,-9.792937987048388138e+00
0.000000000000000000e+00,2.355078890223258892e+00,-9.792935195543192251e+00
0.000000000000000000e+00,2.355078859523952683e+00,-9.792932405593766987e+00
0.000000000000000000e+00,2.355078828840865945e+00,-9.792929617206992177e+00
0.000000000000000000e+00,2.355078798174173205e+00,-9.792926830389747650e+00
0.000000000000000000e+00,2.355078767524036554e+00,-9.792924045148907908e+00
0.000000000000000000e+00,2.355078736890610092e+00,-9.792921261491345675e+00
0.000000000000000000e+00,2.355078706274039479e+00,-9.792918479423923017e+00
0.000000000000000000e+00,2.355078675674463717e+00,-9.792915698953509107e+00
0.000000000000000000e+00,2.355078645092016032e+00,-9.792912920086958906e+00
0.000000000000000000e+00,2.355078614526822101e+00,-9.792910142831129150e+00
0.000000000000000000e+00,2.355078583979005824e+00,-9.792907367192873025e+00
0.000000000000000000e+00,2.355078553448681777e+00,-9.792904593179031281e+00
0.000000000000000000e+00,2.355078522935963647e+00,-9.792901820796451773e+00
0.000000000000000000e+00,2.355078492440960236e+00,-9.792899050051973475e+00
0.000000000000000000e+00,2.355078461963777681e+00,-9.792896280952431809e+00
0.000000000000000000e+00,2.355078431504518122e+00,-9.792893513504656866e+00
0.000000000000000000e+00,2.355078401063281923e+00,-9.792890747715475186e+00
0.000000000000000000e+00,2.355078370640164565e+00,-9.792887983591709755e+00
0.000000000000000000e+00,2.355078340235262857e+00,-9.792885221140178231e+00
0.000000000000000000e+00,2.355078309848669615e+00,-9.792882460367698272e+00
0.000000000000000000e+00,2.355078279480475434e+00,-9.792879701281075100e+00
0.000000000000000000e+00,2.355078249130768686e+00,-9.792876943887121044e+00
0.000000000000000000e+00,2.355078218799639966e+00,-9.792874188192632445e+00
0.000000000000000000e+00,2.355078188487173207e+00,-9.792871434204412751e+00
0.000000000000000000e+00,2.355078158193454563e+00,-9.792868681929254748e+00
0.000000000000000000e+00,2.355078127918569297e+00,-9.792865931373942345e+00
0.000000000000000000e+00,2.355078097662600456e+00,-9.792863182545266554e+00
0.000000000000000000e+00,2.355078067425629307e+00,-9.792860435450005951e+00
0.000000000000000000e+00,2.355078037207738451e+00,-9.792857690094937340e+00
0.000000000000000000e+00,2.355078007009007823e+00,-9.792854946486833967e+00
0.000000000000000000e+00,2.355077976829518693e+00,-9.792852204632461977e+00
0.000000000000000000e+00,2.355077946669349664e+00,-9.792849464538583959e+00
0.000000000000000000e+00,2.355077916528579784e+00,-9.792846726211964281e+00
0.000000000000000000e+00,2.355077886407288101e+00,-9.792843989659354875e+00
0.000000000000000000e+00,2.355077856305552331e+00,-9.792841254887502345e+00
0.000000000000000000e+00,2.355077826223449744e+00,-9.792838521903163951e+00
0.000000000000000000e+00,2.355077796161058057e+00,-9.792835790713070310e+00
0.000000000000000000e+00,2.355077766118454541e+00,-9.792833061323962696e+00
0.000000000000000000e+00,2.355077736095714247e+00,-9.792830333742575277e+00
0.000000000000000000e+00,2.355077706092914447e+00,-9.792827607975633342e+00
0.000000000000000000e+00,2.355077676110130636e+00,-9.792824884029867505e+00
0.000000000000000000e+00,2.355077646147439641e+00,-9.792822161911990619e+00
0.000000000000000000e+00,2.355077616204916069e+00,-9.792819441628719090e+00
0.000000000000000000e+00,2.355077586282634972e+00,-9.792816723186762218e+00
0.000000000000000000e+00,2.355077556380673176e+00,-9.792814006592829301e+00
0.000000000000000000e+00,2.355077526499103069e+00,-9.792811291853620759e+00
0.000000000000000000e+00,2.355077496638001033e+00,-9.792808578975829903e+00
0.000000000000000000e+00,2.355077466797441677e+00,-9.792805867966151823e+00
0.000000000000000000e+00,2.355077436977499605e+00,-9.792803158831276278e+00
0.000000000000000000e+00,2.355077407178248095e+00,-9.792800451577880594e+00
0.000000000000000000e+00,2.355077377399762639e+00,-9.792797746212645649e+00
0.000000000000000000e+00,2.355077347642116070e+00,-9.792795042742243439e+00
0.000000000000000000e+00,2.355077317905383438e+00,-9.792792341173347737e+00
0.000000000000000000e+00,2.355077288189638907e+00,-9.792789641512618104e+00
0.000000000000000000e+00,2.355077258494954862e+00,-9.792786943766715879e+00
0.000000000000000000e+00,2.355077228821405022e+00,-9.792784247942297071e+00
0.000000000000000000e+00,2.355077199169064439e+00,-9.792781554046007031e+00
0.000000000000000000e+00,2.355077169538005499e+00,-9.792778862084492886e+00
0.000000000000000000e+00,2.355077139928302810e+00,-9.792776172064398210e+00
0.000000000000000000e+00,2.355077110340027868e+00,-9.792773483992357697e+00
0.000000000000000000e+00,2.355077080773254394e+00,-9.792770797874997157e+00
0.000000000000000000e+00,2.355077051228056995e+00,-9.792768113718949508e+00
0.000000000000000000e+00,2.355077021704507612e+00,-9.792765431530829900e+00
0.000000000000000000e+00,2.355076992202679964e+00,-9.792762751317260594e+00
0.000000000000000000e+00,2.355076962722645995e+00,-9.792760073084847861e+00
0.000000000000000000e+00,2.355076933264478534e+00,-9.792757396840203299e+00
0.000000000000000000e+00,2.355076903828252632e+00,-9.792754722589922523e+00
0.000000000000000000e+00,2.355076874414038013e+00,-9.792752050340606473e+00
0.000000000000000000e+00,2.355076845021909282e+00,-9.792749380098845435e+00
0.000000000000000000e+00,2.355076815651937938e+00,-9.792746711871226140e+00
0.000000000000000000e+00,2.355076786304197700e+00,-9.792744045664331765e+00
0.000000000000000000e+00,2.355076756978760066e+00,-9.792741381484736607e+00
0.000000000000000000e+00,2.355076727675698312e+00,-9.792738719339016740e+00
0.000000000000000000e+00,2.355076698395084378e+00,-9.792736059233734025e+00
0.000000000000000000e+00,2.355076669136989764e+00,-9.792733401175453878e+00
0.000000000000000000e+00,2.355076639901488633e+00,-9.792730745170731055e+00
0.000000000000000000e+00,2.355076610688651151e+00,-9.792728091226118536e+00
0.000000000000000000e+00,2.355076581498551480e+00,-9.792725439348160421e+00
0.000000000000000000e+00,2.355076552331259343e+00,-9.792722789543400808e+00
0.000000000000000000e+00,2.355076523186848014e+00,-9.792720141818374913e+00
0.000000000000000000e+00,2.355076494065390769e+00,-9.792717496179614400e+00
0.000000000000000000e+00,2.355076464966957328e+00,-9.792714852633645606e+00
0.000000000000000000e+00,2.355076435891619191e+00,-9.792712211186987759e+00
0.000000000000000000e+00,2.355076406839450520e+00,-9.792709571846156535e+00
0.000000000000000000e+00,2.355076377810521482e+00,-9.792706934617665837e+00
0.000000000000000000e+00,2.355076348804903574e+00,-9.792704299508018906e+00
0.000000000000000000e+00,2.355076319822669184e+00,-9.792701666523713655e+00
0.000000000000000000e+00,2.355076290863889810e+00,-9.792699035671247998e+00
0.000000000000000000e+00,2.355076261928635617e+00,-9.792696406957110966e+00
0.000000000000000000e+00,2.355076233016979437e+00,-9.792693780387786262e+00
0.000000000000000000e+00,2.355076204128992323e+00,-9.792691155969750483e+00
0.000000000000000000e+00,2.355076175264746219e+00,-9.792688533709482002e+00
0.000000000000000000e+00,2.355076146424310846e+00,-9.792685913613443205e+00
0.000000000000000000e+00,2.355076117607756814e+00,-9.792683295688101808e+00
0.000000000000000000e+00,2.355076088815158730e+00,-9.792680679939914867e+00
0.000000000000000000e+00,2.355076060046583653e+00,-9.792678066375332335e+00
0.000000000000000000e+00,2.355076031302104855e+00,-9.792675455000804163e+00
0.000000000000000000e+00,2.355076002581793393e+00,-9.792672845822769645e+00
0.000000000000000000e+00,2.355075973885718987e+00,-9.792670238847666297e+00
0.000000000000000000e+00,2.355075945213953137e+00,-9.792667634081922756e+00
0.000000000000000000e+00,2.355075916566566452e+00,-9.792665031531964104e+00
0.000000000000000000e+00,2.355075887943629542e+00,-9.792662431204213647e+00
0.000000000000000000e+00,2.355075859345213463e+00,-9.792659833105080480e+00
0.000000000000000000e+00,2.355075830771387047e+00,-9.792657237240975476e+00
0.000000000000000000e+00,2.355075802222223125e+00,-9.792654643618304178e+00
0.000000000000000000e+00,2.355075773697791863e+00,-9.792652052243461469e+00
0.000000000000000000e+00,2.355075745198162096e+00,-9.792649463122840459e+00
0.000000000000000000e+00,2.355075716723405321e+00,-9.792646876262825373e+00
0.000000000000000000e+00,2.355075688273591705e+00,-9.792644291669798662e+00
0.000000000000000000e+00,2.355075659848790970e+00,-9.792641709350135670e+00
0.000000000000000000e+00,2.355075631449074169e+00,-9.792639129310209967e+00
0.000000000000000000e+00,2.355075603074510582e+00,-9.792636551556379132e+00
0.000000000000000000e+00,2.355075574725170373e+00,-9.792633976095004300e+00
0.000000000000000000e+00,2.355075546401123709e+00,-9.792631402932437723e+00
0.000000000000000000e+00,2.355075518102439869e+00,-9.792628832075029877e+00
0.000000000000000000e+00,2.355075489829189461e+00,-9.792626263529115249e+00
0.000000000000000000e+00,2.355075461581442653e+00,-9.792623697301038987e+00
0.000000000000000000e+00,2.355075433359268278e+00,-9.792621133397121369e+00
0.000000000000000000e+00,2.355075405162735613e+00,-9.792618571823693330e+00
0.000000000000000000e+00,2.355075376991914826e+00,-9.792616012587069818e+00
0.000000000000000000e+00,2.355075348846875194e+00,-9.792613455693565783e+00
0.000000000000000000e+00,2.355075320727686883e+00,-9.792610901149485514e+00
0.000000000000000000e+00,2.355075292634418727e+00,-9.792608348961133302e+00
0.000000000000000000e+00,2.355075264567140003e+00,-9.792605799134799227e+00
0.000000000000000000e+00,2.355075236525920435e+00,-9.792603251676782250e+00
0.000000000000000000e+00,2.355075208510828411e+00,-9.792600706593356463e+00
0.000000000000000000e+00,2.355075180521933209e+00,-9.792598163890803065e+00
0.000000000000000000e+00,2.355075152559305440e+00,-9.792595623575397923e+00
0.000000000000000000e+00,2.355075124623011273e+00,-9.792593085653399143e+00
0.000000000000000000e+00,2.355075096713122207e+00,-9.792590550131071936e+00
0.000000000000000000e+00,2.355075068829705742e+00,-9.792588017014669077e+00
0.000000000000000000e+00,2.355075040972831601e+00,-9.792585486310441567e+00
0.000000000000000000e+00,2.355075013142567286e+00,-9.792582958024627970e+00
0.000000000000000000e+00,2.355074985338982074e+00,-9.792580432163466853e+00
0.000000000000000000e+00,2.355074957562145688e+00,-9.792577908733186121e+00
0.000000000000000000e+00,2.355074929812125184e+00,-9.792575387740011905e+00
0.000000000000000000e+00,2.355074902088989397e+00,-9.792572869190165008e+00
0.000000000000000000e+00,2.355074874392807160e+00,-9.792570353089852020e+00
0.000000000000000000e+00,2.355074846723645976e+00,-9.792567839445281308e+00
0.000000000000000000e+00,2.355074819081575122e+00,-9.792565328262655910e+00
0.000000000000000000e+00,2.355074791466662987e+00,-9.792562819548164654e+00
0.000000000000000000e+00,2.355074763878975741e+00,-9.792560313308001696e+00
0.000000000000000000e+00,2.355074736318583994e+00,-9.792557809548346981e+00
0.000000000000000000e+00,2.355074708785554360e+00,-9.792555308275369796e+00
0.000000000000000000e+00,2.355074681279953897e+00,-9.792552809495251864e+00
0.000000000000000000e+00,2.355074653801852769e+00,-9.792550313214144708e+00
0.000000000000000000e+00,2.355074626351316702e+00,-9.792547819438212287e+00
0.000000000000000000e+00,2.355074598928415863e+00,-9.792545328173602570e+00
0.000000000000000000e+00,2.355074571533214645e+00,-9.792542839426465306e+00
0.000000000000000000e+00,2.355074544165783657e+00,-9.792540353202934256e+00
0.000000000000000000e+00,2.355074516826188624e+00,-9.792537869509143178e+00
0.000000000000000000e+00,2.355074489514497493e+00,-9.792535388351218728e+00
0.000000000000000000e+00,2.355074462230777765e+00,-9.792532909735278679e+00
0.000000000000000000e+00,2.355074434975096498e+00,-9.792530433667439027e+00
0.000000000000000000e+00,2.355074407747521192e+00,-9.792527960153812217e+00
0.000000000000000000e+00,2.355074380548119795e+00,-9.792525489200489375e+00
0.000000000000000000e+00,2.355074353376958474e+00,-9.792523020813570511e+00
0.000000000000000000e+00,2.355074326234104287e+00,-9.792520554999146754e+00
0.000000000000000000e+00,2.355074299119623404e+00,-9.792518091763293242e+00
0.000000000000000000e+00,2.355074272033585103e+00,-9.792515631112090446e+00
0.000000000000000000e+00,2.355074244976054221e+00,-9.792513173051604625e+00
0.000000000000000000e+00,2.355074217947097814e+00,-9.792510717587907365e+00
0.000000000000000000e+00,2.355074190946782942e+00,-9.792508264727041833e+00
0.000000000000000000e+00,2.355074163975177104e+00,-9.792505814475067183e+00
0.000000000000000000e+00,2.355074137032345138e+00,-9.792503366838024803e+00
0.000000000000000000e+00,2.355074110118354547e+00,-9.792500921821948978e+00
0.000000000000000000e+00,2.355074083233271942e+00,-9.792498479432879321e+00
0.000000000000000000e+00,2.355074056377163050e+00,-9.792496039676830577e+00
0.000000000000000000e+00,2.355074029550094039e+00,-9.792493602559822818e+00
0.000000000000000000e+00,2.355074002752131523e+00,-9.792491168087869013e+00
0.000000000000000000e+00,2.355073975983341672e+00,-9.792488736266976801e+00
0.000000000000000000e+00,2.355073949243791098e+00,-9.792486307103136056e+00
0.000000000000000000e+00,2.355073922533544195e+00,-9.792483880602347313e+00
0.000000000000000000e+00,2.355073895852667576e+00,-9.792481456770589787e+00
0.000000000000000000e+00,2.355073869201227854e+00,-9.792479035613842697e+00
0.000000000000000000e+00,2.355073842579290311e+00,-9.792476617138079931e+00
0.000000000000000000e+00,2.355073815986920671e+00,-9.792474201349266494e+00
0.000000000000000000e+00,2.355073789424184216e+00,-9.792471788253360288e+00
0.000000000000000000e+00,2.355073762891145783e+00,-9.792469377856312107e+00
0.000000000000000000e+00,2.355073736387873318e+00,-9.792466970164067419e+00
0.000000000000000000e+00,2.355073709914429436e+00,-9.792464565182568137e+00
0.000000000000000000e+00,2.355073683470882084e+00,-9.792462162917740187e+00
0.000000000000000000e+00,2.355073657057294767e+00,-9.792459763375516602e+00
0.000000000000000000e+00,2.355073630673732321e+00,-9.792457366561807319e+00
0.000000000000000000e+00,2.355073604320261804e+00,-9.792454972482529385e+00
0.000000000000000000e+00,2.355073577996945389e+00,-9.792452581143590962e+00
0.000000000000000000e+00,2.355073551703850576e+00,-9.792450192550882448e+00
0.000000000000000000e+00,2.355073525441041316e+00,-9.792447806710301350e+00
0.000000000000000000e+00,2.355073499208582888e+00,-9.792445423627725631e+00
0.000000000000000000e+00,2.355073473006538798e+00,-9.792443043309040362e+00
0.000000000000000000e+00,2.355073446834974327e+00,-9.792440665760116403e+00
0.000000000000000000e+00,2.355073420693955200e+00,-9.792438290986810401e+00
0.000000000000000000e+00,2.355073394583544033e+00,-9.792435918994987887e+00
0.000000000000000000e+00,2.355073368503806996e+00,-9.792433549790494851e+00
0.000000000000000000e+00,2.355073342454807594e+00,-9.792431183379177284e+00
0.000000000000000000e+00,2.355073316436609332e+00,-9.792428819766870518e+00
0.000000000000000000e+00,2.355073290449278378e+00,-9.792426458959406332e+00
0.000000000000000000e+00,2.355073264492876461e+00,-9.792424100962604072e+00
0.000000000000000000e+00,2.355073238567469751e+00,-9.792421745782279530e+00
0.000000000000000000e+00,2.355073212673121308e+00,-9.792419393424246721e+00
0.000000000000000000e+00,2.355073186809894192e+00,-9.792417043894305451e+00
0.000000000000000000e+00,2.355073160977853686e+00,-9.792414697198248419e+00
0.000000000000000000e+00,2.355073135177064181e+00,-9.792412353341864772e+00
0.000000000000000000e+00,2.355073109407586074e+00,-9.792410012330938329e+00
0.000000000000000000e+00,2.355073083669486422e+00,-9.792407674171240473e+00
0.000000000000000000e+00,2.355073057962826955e+00,-9.792405338868537257e+00
0.000000000000000000e+00,2.355073032287671175e+00,-9.792403006428594736e+00
0.000000000000000000e+00,2.355073006644083033e+00,-9.792400676857154096e+00
0.000000000000000000e+00,2.355072981032125590e+00,-9.792398350159970732e+00
0.000000000000000000e+00,2.355072955451861461e+00,-9.792396026342784054e+00
0.000000000000000000e+00,2.355072929903354595e+00,-9.792393705411319260e+00
0.000000000000000000e+00,2.355072904386667609e+00,-9.792391387371303324e+00
0.000000000000000000e+00,2.355072878901864453e+00,-9.792389072228454339e+00
0.000000000000000000e+00,2.355072853449005965e+00,-9.792386759988483291e+00
0.000000000000000000e+00,2.355072828028156984e+00,-9.792384450657094064e+00
0.000000000000000000e+00,2.355072802639379237e+00,-9.792382144239979880e+00
0.000000000000000000e+00,2.355072777282735341e+00,-9.792379840742830410e+00
0.000000000000000000e+00,2.355072751958288801e+00,-9.792377540171324668e+00
0.000000000000000000e+00,2.355072726666100458e+00,-9.792375242531139889e+00
0.000000000000000000e+00,2.355072701406234259e+00,-9.792372947827946206e+00
0.000000000000000000e+00,2.355072676178751490e+00,-9.792370656067397761e+00
0.000000000000000000e+00,2.355072650983714766e+00,-9.792368367255146921e+00
0.000000000000000000e+00,2.355072625821187149e+00,-9.792366081396842503e+00
0.000000000000000000e+00,2.355072600691229034e+00,-9.792363798498119110e+00
0.000000000000000000e+00,2.355072575593904372e+00,-9.792361518564611345e+00
0.000000000000000000e+00,2.355072550529273112e+00,-9.792359241601937825e+00
0.000000000000000000e+00,2.355072525497398317e+00,-9.792356967615718943e+00
0.000000000000000000e+00,2.355072500498341270e+00,-9.792354696611557330e+00
0.000000000000000000e+00,2.355072475532164589e+00,-9.792352428595060942e+00
0.000000000000000000e+00,2.355072450598928668e+00,-9.792350163571821753e+00
0.000000000000000000e+00,2.355072425698695238e+00,-9.792347901547424627e+00
0.000000000000000000e+00,2.355072400831526469e+00,-9.792345642527449101e+00
0.000000000000000000e+00,2.355072375997483203e+00,-9.792343386517467607e+00
0.000000000000000000e+00,2.355072351196627167e+00,-9.792341133523043695e+00
0.000000000000000000e+00,2.355072326429018759e+00,-9.792338883549735584e+00
0.000000000000000000e+00,2.355072301694720149e+00,-9.792336636603090838e+00
0.000000000000000000e+00,2.355072276993790847e+00,-9.792334392688649913e+00
0.000000000000000000e+00,2.355072252326293913e+00,-9.792332151811953267e+00
0.000000000000000000e+00,2.355072227692288411e+00,-9.792329913978521816e+00
0.000000000000000000e+00,2.355072203091835625e+00,-9.792327679193878254e+00
0.000000000000000000e+00,2.355072178524996840e+00,-9.792325447463532839e+00
0.000000000000000000e+00,2.355072153991831563e+00,-9.792323218792990502e+00
0.000000000000000000e+00,2.355072129492401967e+00,-9.792320993187747291e+00
0.000000000000000000e+00,2.355072105026766671e+00,-9.792318770653292148e+00
0.000000000000000000e+00,2.355072080594987849e+00,-9.792316551195110463e+00
0.000000000000000000e+00,2.355072056197124120e+00,-9.792314334818673416e+00
0.000000000000000000e+00,2.355072031833237656e+00,-9.792312121529443303e+00
0.000000000000000000e+00,2.355072007503386633e+00,-9.792309911332887751e+00
0.000000000000000000e+00,2.355071983207631447e+00,-9.792307704234453070e+00
0.000000000000000000e+00,2.355071958946032495e+00,-9.792305500239580240e+00
0.000000000000000000e+00,2.355071934718650173e+00,-9.792303299353708468e+00
0.000000000000000000e+00,2.355071910525543544e+00,-9.792301101582268075e+00
0.000000000000000000e+00,2.355071886366772560e+00,-9.792298906930675173e+00
0.000000000000000000e+00,2.355071862242396730e+00,-9.792296715404344098e+00
0.000000000000000000e+00,2.355071838152475561e+00,-9.792294527008680305e+00
0.000000000000000000e+00,2.355071814097068117e+00,-9.792292341749083917e+00
0.000000000000000000e+00,2.355071790076234350e+00,-9.792290159630940849e+00
0.000000000000000000e+00,2.355071766090034213e+00,-9.792287980659635238e+00
0.000000000000000000e+00,2.355071742138524993e+00,-9.792285804840538788e+00
0.000000000000000000e+00,2.355071718221766641e+00,-9.792283632179021424e+00
0.000000000000000000e+00,2.355071694339819999e+00,-9.792281462680437087e+00
0.000000000000000000e+00,2.355071670492741021e+00,-9.792279296350139717e+00
0.000000000000000000e+00,2.355071646680590547e+00,-9.792277133193470817e+00
0.000000000000000000e+00,2.355071622903426309e+00,-9.792274973215770117e+00
0.000000000000000000e+00,2.355071599161308260e+00,-9.792272816422356030e+00
0.000000000000000000e+00,2.355071575454293242e+00,-9.792270662818555849e+00
0.000000000000000000e+00,2.355071551782441208e+00,-9.792268512409679104e+00
0.000000000000000000e+00,2.355071528145809445e+00,-9.792266365201029998e+00
0.000000000000000000e+00,2.355071504544457461e+00,-9.792264221197898522e+00
0.000000000000000000e+00,2.355071480978442100e+00,-9.792262080405579994e+00
0.000000000000000000e+00,2.355071457447823313e+00,-9.792259942829351971e+00
0.000000000000000000e+00,2.355071433952657056e+00,-9.792257808474486680e+00
0.000000000000000000e+00,2.355071410493003281e+00,-9.792255677346243914e+00
0.000000000000000000e+00,2.355071387068919275e+00,-9.792253549449887018e+00
0.000000000000000000e+00,2.355071363680462326e+00,-9.792251424790656245e+00
0.000000000000000000e+00,2.355071340327689722e+00,-9.792249303373798952e+00
0.000000000000000000e+00,2.355071317010660081e+00,-9.792247185204548288e+00
0.000000000000000000e+00,2.355071293729431137e+00,-9.792245070288116082e+00
0.000000000000000000e+00,2.355071270484059287e+00,-9.792242958629730154e+00
0.000000000000000000e+00,2.355071247274603152e+00,-9.792240850234598781e+00
0.000000000000000000e+00,2.355071224101118688e+00,-9.792238745107912479e+00
0.000000000000000000e+00,2.355071200963663625e+00,-9.792236643254872419e+00
0.000000000000000000e+00,2.355071177862294807e+00,-9.792234544680658459e+00
0.000000000000000000e+00,2.355071154797070854e+00,-9.792232449390446902e+00
0.000000000000000000e+00,2.355071131768046389e+00,-9.792230357389405171e+00
0.000000000000000000e+00,2.355071108775279587e+00,-9.792228268682695358e+00
0.000000000000000000e+00,2.355071085818827292e+00,-9.792226183275463569e+00
0.000000000000000000e+00,2.355071062898745460e+00,-9.792224101172857686e+00
0.000000000000000000e+00,2.355071040015090489e+00,-9.792222022380011381e+00
0.000000000000000000e+00,2.355071017167919223e+00,-9.792219946902051220e+00
0.000000000000000000e+00,2.355070994357288505e+00,-9.792217874744096662e+00
0.000000000000000000e+00,2.355070971583254291e+00,-9.792215805911256510e+00
0.000000000000000000e+00,2.355070948845872536e+00,-9.792213740408634237e+00
0.000000000000000000e+00,2.355070926145200083e+00,-9.792211678241329764e+00
0.000000000000000000e+00,2.355070903481291111e+00,-9.792209619414419919e+00
0.000000000000000000e+00,2.355070880854203352e+00,-9.792207563932986858e+00
0.000000000000000000e+00,2.355070858263993205e+00,-9.792205511802100304e+00
0.000000000000000000e+00,2.355070835710714405e+00,-9.792203463026817545e+00
0.000000000000000000e+00,2.355070813194423796e+00,-9.792201417612195868e+00
0.000000000000000000e+00,2.355070790715175999e+00,-9.792199375563278352e+00
0.000000000000000000e+00,2.355070768273028303e+00,-9.792197336885104519e+00
0.000000000000000000e+00,2.355070745868034443e+00,-9.792195301582696132e+00
0.000000000000000000e+00,2.355070723500249930e+00,-9.792193269661074950e+00
0.000000000000000000e+00,2.355070701169730274e+00,-9.792191241125257406e+00
0.000000000000000000e+00,2.355070678876530987e+00,-9.792189215980240391e+00
0.000000000000000000e+00,2.355070656620706693e+00,-9.792187194231020797e+00
0.000000000000000000e+00,2.355070634402312013e+00,-9.792185175882581305e+00
0.000000000000000000e+00,2.355070612221402460e+00,-9.792183160939908149e+00
0.000000000000000000e+00,2.355070590078031767e+00,-9.792181149407962693e+00
0.000000000000000000e+00,2.355070567972255891e+00,-9.792179141291711630e+00
0.000000000000000000e+00,2.355070545904127677e+00,-9.792177136596102116e+00
0.000000000000000000e+00,2.355070523873703525e+00,-9.792175135326079527e+00
0.000000000000000000e+00,2.355070501881035838e+00,-9.792173137486585688e+00
0.000000000000000000e+00,2.355070479926181015e+00,-9.792171143082539331e+00
0.000000000000000000e+00,2.355070458009191015e+00,-9.792169152118866293e+00
0.000000000000000000e+00,2.355070436130122236e+00,-9.792167164600472873e+00
0.000000000000000000e+00,2.355070414289027081e+00,-9.792165180532258262e+00
0.000000000000000000e+00,2.355070392485959285e+00,-9.792163199919118100e+00
0.000000000000000000e+00,2.355070370720973916e+00,-9.792161222765944473e+00
0.000000000000000000e+00,2.355070348994122931e+00,-9.792159249077604599e+00
0.000000000000000000e+00,2.355070327305462285e+00,-9.792157278858965697e+00
0.000000000000000000e+00,2.355070305655043494e+00,-9.792155312114893206e+00
0.000000000000000000e+00,2.355070284042920736e+00,-9.792153348850233030e+00
0.000000000000000000e+00,2.355070262469147746e+00,-9.792151389069829293e+00
0.000000000000000000e+00,2.355070240933776926e+00,-9.792149432778513685e+00
0.000000000000000000e+00,2.355070219436861567e+00,-9.792147479981112568e+00
0.000000000000000000e+00,2.355070197978455404e+00,-9.792145530682438093e+00
0.000000000000000000e+00,2.355070176558609951e+00,-9.792143584887305963e+00
0.000000000000000000e+00,2.355070155177380720e+00,-9.792141642600505236e+00
0.000000000000000000e+00,2.355070133834817891e+00,-9.792139703826832076e+00
0.000000000000000000e+00,2.355070112530975202e+00,-9.792137768571066658e+00
0.000000000000000000e+00,2.355070091265905496e+00,-9.792135836837978502e+00
0.000000000000000000e+00,2.355070070039660290e+00,-9.792133908632342454e+00
0.000000000000000000e+00,2.355070048852292874e+00,-9.792131983958899610e+00
0.000000000000000000e+00,2.355070027703854763e+00,-9.792130062822407055e+00
0.000000000000000000e+00,2.355070006594399246e+00,-9.792128145227598779e+00
0.000000000000000000e+00,2.355069985523976506e+00,-9.792126231179203444e+00
0.000000000000000000e+00,2.355069964492640722e+00,-9.792124320681942606e+00
0.000000000000000000e+00,2.355069943500442520e+00,-9.792122413740528941e+00
0.000000000000000000e+00,2.355069922547435191e+00,-9.792120510359664465e+00
0.000000000000000000e+00,2.355069901633667584e+00,-9.792118610544044088e+00
0.000000000000000000e+00,2.355069880759194767e+00,-9.792116714298350288e+00
0.000000000000000000e+00,2.355069859924064701e+00,-9.792114821627261989e+00
0.000000000000000000e+00,2.355069839128332010e+00,-9.792112932535449232e+00
0.000000000000000000e+00,2.355069818372045987e+00,-9.792111047027569626e+00
0.000000000000000000e+00,2.355069797655258146e+00,-9.792109165108270119e+00
0.000000000000000000e+00,2.355069776978020002e+00,-9.792107286782194109e+00
0.000000000000000000e+00,2.355069756340382625e+00,-9.792105412053976110e+00
0.000000000000000000e+00,2.355069735742397530e+00,-9.792103540928231098e+00
0.000000000000000000e+00,2.355069715184114454e+00,-9.792101673409584706e+00
0.000000000000000000e+00,2.355069694665584468e+00,-9.792099809502637697e+00
0.000000000000000000e+00,2.355069674186857753e+00,-9.792097949211989061e+00
0.000000000000000000e+00,2.355069653747985825e+00,-9.792096092542220021e+00
0.000000000000000000e+00,2.355069633349018421e+00,-9.792094239497918906e+00
0.000000000000000000e+00,2.355069612990007055e+00,-9.792092390083649178e+00
0.000000000000000000e+00,2.355069592671000134e+00,-9.792090544303974298e+00
0.000000000000000000e+00,2.355069572392049171e+00,-9.792088702163447067e+00
0.000000000000000000e+00,2.355069552153202572e+00,-9.792086863666606078e+00
0.000000000000000000e+00,2.355069531954512740e+00,-9.792085028817991699e+00
0.000000000000000000e+00,2.355069511796028081e+00,-9.792083197622124757e+00
0.000000000000000000e+00,2.355069491677797444e+00,-9.792081370083526082e+00
0.000000000000000000e+00,2.355069471599872788e+00,-9.792079546206696961e+00
0.000000000000000000e+00,2.355069451562302518e+00,-9.792077725996135129e+00
0.000000000000000000e+00,2.355069431565135041e+00,-9.792075909456334770e+00
0.000000000000000000e+00,2.355069411608420982e+00,-9.792074096591774079e+00
0.000000000000000000e+00,2.355069391692209635e+00,-9.792072287406920594e+00
0.000000000000000000e+00,2.355069371816548962e+00,-9.792070481906243629e+00
0.000000000000000000e+00,2.355069351981489589e+00,-9.792068680094189403e+00
0.000000000000000000e+00,2.355069332187079034e+00,-9.792066881975200587e+00
0.000000000000000000e+00,2.355069312433366591e+00,-9.792065087553718072e+00
0.000000000000000000e+00,2.355069292720401997e+00,-9.792063296834163211e+00
0.000000000000000000e+00,2.355069273048232770e+00,-9.792061509820950249e+00
0.000000000000000000e+00,2.355069253416907760e+00,-9.792059726518486329e+00
0.000000000000000000e+00,2.355069233826475816e+00,-9.792057946931178591e+00
0.000000000000000000e+00,2.355069214276984457e+00,-9.792056171063405756e+00
0.000000000000000000e+00,2.355069194768482976e+00,-9.792054398919550096e+00
0.000000000000000000e+00,2.355069175301017559e+00,-9.792052630503983224e+00
0.000000000000000000e+00,2.355069155874639719e+00,-9.792050865821064320e+00
0.000000000000000000e+00,2.355069136489393422e+00,-9.792049104875147236e+00
0.000000000000000000e+00,2.355069117145329294e+00,-9.792047347670576940e+00
0.000000000000000000e+00,2.355069097842493964e+00,-9.792045594211680637e+00
0.000000000000000000e+00,2.355069078580934949e+00,-9.792043844502790861e+00
0.000000000000000000e+00,2.355069059360700656e+00,-9.792042098548215279e+00
0.000000000000000000e+00,2.355069040181837270e+00,-9.792040356352265107e+00
0.000000000000000000e+00,2.355069021044393640e+00,-9.792038617919230248e+00
0.000000000000000000e+00,2.355069001948415952e+00,-9.792036883253409485e+00
0.000000000000000000e+00,2.355068982893951279e+00,-9.792035152359067851e+00
0.000000000000000000e+00,2.355068963881047583e+00,-9.792033425240482813e+00
0.000000000000000000e+00,2.355068944909750162e+00,-9.792031701901908747e+00
0.000000000000000000e+00,2.355068925980106975e+00,-9.792029982347598249e+00
0.000000000000000000e+00,2.355068907092165098e+00,-9.792028266581791485e+00
0.000000000000000000e+00,2.355068888245969827e+00,-9.792026554608719735e+00
0.000000000000000000e+00,2.355068869441569124e+00,-9.792024846432607177e+00
0.000000000000000000e+00,2.355068850679007841e+00,-9.792023142057660223e+00
0.000000000000000000e+00,2.355068831958334385e+00,-9.792021441488090616e+00
0.000000000000000000e+00,2.355068813279592277e+00,-9.792019744728085229e+00
0.000000000000000000e+00,2.355068794642829921e+00,-9.792018051781830934e+00
0.000000000000000000e+00,2.355068776048092616e+00,-9.792016362653503947e+00
0.000000000000000000e+00,2.355068757495425658e+00,-9.792014677347271601e+00
0.000000000000000000e+00,2.355068738984875676e+00,-9.792012995867281688e+00
0.000000000000000000e+00,2.355068720516487524e+00,-9.792011318217690885e+00
0.000000000000000000e+00,2.355068702090306942e+00,-9.792009644402632773e+00
0.000000000000000000e+00,2.355068683706379673e+00,-9.792007974426232053e+00
0.000000000000000000e+00,2.355068665364751457e+00,-9.792006308292611649e+00
0.000000000000000000e+00,2.355068647065467591e+00,-9.792004646005880275e+00
0.000000000000000000e+00,2.355068628808572040e+00,-9.792002987570134209e+00
0.000000000000000000e+00,2.355068610594110545e+00,-9.792001332989464402e+00
0.000000000000000000e+00,2.355068592422127960e+00,-9.791999682267951144e+00
0.000000000000000000e+00,2.355068574292669581e+00,-9.791998035409671175e+00
0.000000000000000000e+00,2.355068556205780261e+00,-9.791996392418676365e+00
0.000000000000000000e+00,2.355068538161503522e+00,-9.791994753299025689e+00
0.000000000000000000e+00,2.355068520159885104e+00,-9.791993118054758583e+00
0.000000000000000000e+00,2.355068502200968972e+00,-9.791991486689905599e+00
0.000000000000000000e+00,2.355068484284799535e+00,-9.791989859208493741e+00
0.000000000000000000e+00,2.355068466411420314e+00,-9.791988235614537572e+00
0.000000000000000000e+00,2.355068448580876606e+00,-9.791986615912035674e+00
0.000000000000000000e+00,2.355068430793211043e+00,-9.791985000104988401e+00
0.000000000000000000e+00,2.355068413048469367e+00,-9.791983388197374794e+00
0.000000000000000000e+00,2.355068395346692878e+00,-9.791981780193172114e+00
0.000000000000000000e+00,2.355068377687927317e+00,-9.791980176096350519e+00
0.000000000000000000e+00,2.355068360072215761e+00,-9.791978575910858851e+00
0.000000000000000000e+00,2.355068342499601730e+00,-9.791976979640647727e+00
0.000000000000000000e+00,2.355068324970127858e+00,-9.791975387289655330e+00
0.000000000000000000e+00,2.355068307483838108e+00,-9.791973798861800304e+00
0.000000000000000000e+00,2.355068290040775558e+00,-9.791972214361008398e+00
0.000000000000000000e+00,2.355068272640982840e+00,-9.791970633791185818e+00
0.000000000000000000e+00,2.355068255284503476e+00,-9.791969057156228118e+00
0.000000000000000000e+00,2.355068237971379652e+00,-9.791967484460020188e+00
0.000000000000000000e+00,2.355068220701654447e+00,-9.791965915706448698e+00
0.000000000000000000e+00,2.355068203475371380e+00,-9.791964350899377223e+00
0.000000000000000000e+00,2.355068186292571752e+00,-9.791962790042664011e+00
0.000000000000000000e+00,2.355068169153297752e+00,-9.791961233140163756e+00
0.000000000000000000e+00,2.355068152057592901e+00,-9.791959680195711613e+00
0.000000000000000000e+00,2.355068135005498053e+00,-9.791958131213132077e+00
0.000000000000000000e+00,2.355068117997056287e+00,-9.791956586196254975e+00
0.000000000000000000e+00,2.355068101032308903e+00,-9.791955045148888814e+00
0.000000000000000000e+00,2.355068084111298976e+00,-9.791953508074831447e+00
0.000000000000000000e+00,2.355068067234066476e+00,-9.791951974977868289e+00
0.000000000000000000e+00,2.355068050400654478e+00,-9.791950445861790087e+00
0.000000000000000000e+00,2.355068033611103839e+00,-9.791948920730360939e+00
0.000000000000000000e+00,2.355068016865456304e+00,-9.791947399587344947e+00
0.000000000000000000e+00,2.355068000163752728e+00,-9.791945882436490223e+00
0.000000000000000000e+00,2.355067983506034857e+00,-9.791944369281543104e+00
0.000000000000000000e+00,2.355067966892343101e+00,-9.791942860126233938e+00
0.000000000000000000e+00,2.355067950322719650e+00,-9.791941354974278866e+00
0.000000000000000000e+00,2.355067933797204915e+00,-9.791939853829395801e+00
0.000000000000000000e+00,2.355067917315838422e+00,-9.791938356695288448e+00
0.000000000000000000e+00,2.355067900878662801e+00,-9.791936863575642747e+00
0.000000000000000000e+00,2.355067884485716689e+00,-9.791935374474144638e+00
0.000000000000000000e+00,2.355067868137042275e+00,-9.791933889394460522e+00
0.000000000000000000e+00,2.355067851832679526e+00,-9.791932408340263905e+00
0.000000000000000000e+00,2.355067835572667967e+00,-9.791930931315199871e+00
0.000000000000000000e+00,2.355067819357048453e+00,-9.791929458322906399e+00
0.000000000000000000e+00,2.355067803185860065e+00,-9.791927989367023244e+00
0.000000000000000000e+00,2.355067787059143658e+00,-9.791926524451174174e+00
0.000000000000000000e+00,2.355067770976938757e+00,-9.791925063578965194e+00
0.000000000000000000e+00,2.355067754939284441e+00,-9.791923606754005860e+00
0.000000000000000000e+00,2.355067738946221567e+00,-9.791922153979886190e+00
0.000000000000000000e+00,2.355067722997787882e+00,-9.791920705260185542e+00
0.000000000000000000e+00,2.355067707094024687e+00,-9.791919260598479724e+00
0.000000000000000000e+00,2.355067691234969285e+00,-9.791917819998330330e+00
0.000000000000000000e+00,2.355067675420662976e+00,-9.791916383463288298e+00
0.000000000000000000e+00,2.355067659651143064e+00,-9.791914950996901013e+00
0.000000000000000000e+00,2.355067643926448184e+00,-9.791913522602698094e+00
0.000000000000000000e+00,2.355067628246618749e+00,-9.791912098284203836e+00
0.000000000000000000e+00,2.355067612611692507e+00,-9.791910678044926541e+00
0.000000000000000000e+00,2.355067597021708536e+00,-9.791909261888370963e+00
0.000000000000000000e+00,2.355067581476704586e+00,-9.791907849818032972e+00
0.000000000000000000e+00,2.355067565976719290e+00,-9.791906441837387121e+00
0.000000000000000000e+00,2.355067550521791286e+00,-9.791905037949913293e+00
0.000000000000000000e+00,2.355067535111958321e+00,-9.791903638159070056e+00
0.000000000000000000e+00,2.355067519747258142e+00,-9.791902242468308870e+00
0.000000000000000000e+00,2.355067504427729386e+00,-9.791900850881074092e+00
0.000000000000000000e+00,2.355067489153409355e+00,-9.791899463400792314e+00
0.000000000000000000e+00,2.355067473924336685e+00,-9.791898080030893681e+00
0.000000000000000000e+00,2.355067458740547792e+00,-9.791896700774781692e+00
0.000000000000000000e+00,2.355067443602080424e+00,-9.791895325635861624e+00
0.000000000000000000e+00,2.355067428508971883e+00,-9.791893954617519213e+00
0.000000000000000000e+00,2.355067413461259473e+00,-9.791892587723143748e+00
0.000000000000000000e+00,2.355067398458981387e+00,-9.791891224956101425e+00
0.000000000000000000e+00,2.355067383502173151e+00,-9.791889866319756663e+00
0.000000000000000000e+00,2.355067368590872068e+00,-9.791888511817450791e+00
0.000000000000000000e+00,2.355067353725114998e+00,-9.791887161452535793e+00
0.000000000000000000e+00,2.355067338904938801e+00,-9.791885815228333456e+00
0.000000000000000000e+00,2.355067324130381223e+00,-9.791884473148165569e+00
0.000000000000000000e+00,2.355067309401475573e+00,-9.791883135215343259e+00
0.000000000000000000e+00,2.355067294718261373e+00,-9.791881801433165222e+00
0.000000000000000000e+00,2.355067280080773262e+00,-9.791880471804923047e+00
0.000000000000000000e+00,2.355067265489047657e+00,-9.791879146333888784e+00
0.000000000000000000e+00,2.355067250943120527e+00,-9.791877825023336257e+00
0.000000000000000000e+00,2.355067236443028733e+00,-9.791876507876525082e+00
0.000000000000000000e+00,2.355067221988806025e+00,-9.791875194896698886e+00
0.000000000000000000e+00,2.355067207580490152e+00,-9.791873886087103074e+00
0.000000000000000000e+00,2.355067193218114863e+00,-9.791872581450958180e+00
0.000000000000000000e+00,2.355067178901717462e+00,-9.791871280991482962e+00
0.000000000000000000e+00,2.355067164631331700e+00,-9.791869984711883745e+00
0.000000000000000000e+00,2.355067150406992660e+00,-9.791868692615359748e+00
0.000000000000000000e+00,2.355067136228738089e+00,-9.791867404705094202e+00
0.000000000000000000e+00,2.355067122096599075e+00,-9.791866120984266786e+00
0.000000000000000000e+00,2.355067108010614252e+00,-9.791864841456039414e+00
0.000000000000000000e+00,2.355067093970815595e+00,-9.791863566123572227e+00
0.000000000000000000e+00,2.355067079977239519e+00,-9.791862294990007598e+00
0.000000000000000000e+00,2.355067066029919776e+00,-9.791861028058477245e+00
0.000000000000000000e+00,2.355067052128890559e+00,-9.791859765332109333e+00
0.000000000000000000e+00,2.355067038274185176e+00,-9.791858506814019592e+00
0.000000000000000000e+00,2.355067024465840486e+00,-9.791857252507304210e+00
0.000000000000000000e+00,2.355067010703889352e+00,-9.791856002415061155e+00
0.000000000000000000e+00,2.355066996988365524e+00,-9.791854756540374183e+00
0.000000000000000000e+00,2.355066983319301865e+00,-9.791853514886314613e+00
0.000000000000000000e+00,2.355066969696733903e+00,-9.791852277455943110e+00
0.000000000000000000e+00,2.355066956120694499e+00,-9.791851044252315006e+00
0.000000000000000000e+00,2.355066942591217405e+00,-9.791849815278464320e+00
0.000000000000000000e+00,2.355066929108334595e+00,-9.791848590537426844e+00
0.000000000000000000e+00,2.355066915672082040e+00,-9.791847370032222386e+00
0.000000000000000000e+00,2.355066902282490826e+00,-9.791846153765861871e+00
0.000000000000000000e+00,2.355066888939593817e+00,-9.791844941741342012e+00
0.000000000000000000e+00,2.355066875643425206e+00,-9.791843733961652418e+00
0.000000000000000000e+00,2.355066862394016969e+00,-9.791842530429770264e+00
0.000000000000000000e+00,2.355066849191402412e+00,-9.791841331148667393e+00
0.000000000000000000e+00,2.355066836035613509e+00,-9.791840136121297888e+00
0.000000000000000000e+00,2.355066822926683567e+00,-9.791838945350608725e+00
0.000000000000000000e+00,2.355066809864644117e+00,-9.791837758839537997e+00
0.000000000000000000e+00,2.355066796849527577e+00,-9.791836576591013142e+00
0.000000000000000000e+00,2.355066783881365478e+00,-9.791835398607943830e+00
0.000000000000000000e+00,2.355066770960191569e+00,-9.791834224893239735e+00
0.000000000000000000e+00,2.355066758086036494e+00,-9.791833055449794543e+00
0.000000000000000000e+00,2.355066745258931782e+00,-9.791831890280489503e+00
0.000000000000000000e+00,2.355066732478909852e+00,-9.791830729388204091e+00
0.000000000000000000e+00,2.355066719746001347e+00,-9.791829572775794688e+00
0.000000000000000000e+00,2.355066707060238240e+00,-9.791828420446115899e+00
0.000000000000000000e+00,2.355066694421652063e+00,-9.791827272402009896e+00
0.000000000000000000e+00,2.355066681830274788e+00,-9.791826128646304639e+00
0.000000000000000000e+00,2.355066669286134839e+00,-9.791824989181824535e+00
0.000000000000000000e+00,2.355066656789265522e+00,-9.791823854011379780e+00
0.000000000000000000e+00,2.355066644339697035e+00,-9.791822723137766360e+00
0.000000000000000000e+00,2.355066631937459576e+00,-9.791821596563774932e+00
0.000000000000000000e+00,2.355066619582585563e+00,-9.791820474292183718e+00
0.000000000000000000e+00,2.355066607275102974e+00,-9.791819356325760282e+00
0.000000000000000000e+00,2.355066595015043784e+00,-9.791818242667259753e+00
0.000000000000000000e+00,2.355066582802436859e+00,-9.791817133319430155e+00
0.000000000000000000e+00,2.355066570637314172e+00,-9.791816028285008855e+00
0.000000000000000000e+00,2.355066558519704589e+00,-9.791814927566713678e+00
0.000000000000000000e+00,2.355066546449638309e+00,-9.791813831167269555e+00
0.000000000000000000e+00,2.355066534427145086e+00,-9.791812739089374773e+00
0.000000000000000000e+00,2.355066522452254674e+00,-9.791811651335718736e+00
0.000000000000000000e+00,2.355066510524996826e+00,-9.791810567908987295e+00
0.000000000000000000e+00,2.355066498645400408e+00,-9.791809488811853868e+00
0.000000000000000000e+00,2.355066486813494731e+00,-9.791808414046979436e+00
0.000000000000000000e+00,2.355066475029309991e+00,-9.791807343617010773e+00
0.000000000000000000e+00,2.355066463292873280e+00,-9.791806277524591096e+00
0.000000000000000000e+00,2.355066451604216127e+00,-9.791805215772347637e+00
0.000000000000000000e+00,2.355066439963365621e+00,-9.791804158362900523e+00
0.000000000000000000e+00,2.355066428370350629e+00,-9.791803105298852117e+00
0.000000000000000000e+00,2.355066416825200903e+00,-9.791802056582803004e+00
0.000000000000000000e+00,2.355066405327943535e+00,-9.791801012217341338e+00
0.000000000000000000e+00,2.355066393878607833e+00,-9.791799972205037506e+00
0.000000000000000000e+00,2.355066382477222220e+00,-9.791798936548461896e+00
0.000000000000000000e+00,2.355066371123813784e+00,-9.791797905250165357e+00
0.000000000000000000e+00,2.355066359818410504e+00,-9.791796878312689856e+00
0.000000000000000000e+00,2.355066348561041245e+00,-9.791795855738572030e+00
0.000000000000000000e+00,2.355066337351733985e+00,-9.791794837530327200e+00
0.000000000000000000e+00,2.355066326190514925e+00,-9.791793823690468912e+00
0.000000000000000000e+00,2.355066315077413375e+00,-9.791792814221498276e+00
0.000000000000000000e+00,2.355066304012455092e+00,-9.791791809125909296e+00
0.000000000000000000e+00,2.355066292995669386e+00,-9.791790808406169333e+00
0.000000000000000000e+00,2.355066282027080682e+00,-9.791789812064758181e+00
0.000000000000000000e+00,2.355066271106719178e+00,-9.791788820104120106e+00
0.000000000000000000e+00,2.355066260234609299e+00,-9.791787832526713586e+00
0.000000000000000000e+00,2.355066249410779022e+00,-9.791786849334966902e+00
0.000000000000000000e+00,2.355066238635254550e+00,-9.791785870531304781e+00
0.000000000000000000e+00,2.355066227908062526e+00,-9.791784896118144843e+00
0.000000000000000000e+00,2.355066217229230041e+00,-9.791783926097885171e+00
0.000000000000000000e+00,2.355066206598783296e+00,-9.791782960472920294e+00
0.000000000000000000e+00,2.355066196016748936e+00,-9.791781999245632306e+00
0.000000000000000000e+00,2.355066185483151386e+00,-9.791781042418390868e+00
0.000000000000000000e+00,2.355066174998018624e+00,-9.791780089993553204e+00
0.000000000000000000e+00,2.355066164561374631e+00,-9.791779141973469436e+00
0.000000000000000000e+00,2.355066154173247384e+00,-9.791778198360480800e+00
0.000000000000000000e+00,2.355066143833660419e+00,-9.791777259156908997e+00
0.000000000000000000e+00,2.355066133542639495e+00,-9.791776324365072171e+00
0.000000000000000000e+00,2.355066123300212144e+00,-9.791775393987274256e+00
0.000000000000000000e+00,2.355066113106400572e+00,-9.791774468025812084e+00
0.000000000000000000e+00,2.355066102961233199e+00,-9.791773546482968271e+00
0.000000000000000000e+00,2.355066092864732230e+00,-9.791772629361014779e+00
0.000000000000000000e+00,2.355066082816923867e+00,-9.791771716662212910e+00
0.000000000000000000e+00,2.355066072817833422e+00,-9.791770808388813307e+00
0.000000000000000000e+00,2.355066062867483989e+00,-9.791769904543055958e+00
0.000000000000000000e+00,2.355066052965901324e+00,-9.791769005127170189e+00
0.000000000000000000e+00,2.355066043113109853e+00,-9.791768110143371118e+00
0.000000000000000000e+00,2.355066033309133555e+00,-9.791767219593870308e+00
0.000000000000000000e+00,2.355066023553995969e+00,-9.791766333480861562e+00
0.000000000000000000e+00,2.355066013847722406e+00,-9.791765451806529796e+00
0.000000000000000000e+00,2.355066004190336848e+00,-9.791764574573051050e+00
0.000000000000000000e+00,2.355065994581862387e+00,-9.791763701782585372e+00
0.000000000000000000e+00,2.355065985022322561e+00,-9.791762833437287483e+00
0.000000000000000000e+00,2.355065975511740906e+00,-9.791761969539294341e+00
0.000000000000000000e+00,2.355065966050142290e+00,-9.791761110090742903e+00
0.000000000000000000e+00,2.355065956637548474e+00,-9.791760255093748810e+00
0.000000000000000000e+00,2.355065947273983884e+00,-9.791759404550418822e+00
0.000000000000000000e+00,2.355065937959470279e+00,-9.791758558462856143e+00
0.000000000000000000e+00,2.355065928694031641e+00,-9.791757716833140890e+00
0.000000000000000000e+00,2.355065919477691505e+00,-9.791756879663351398e+00
0.000000000000000000e+00,2.355065910310470301e+00,-9.791756046955551795e+00
0.000000000000000000e+00,2.355065901192393341e+00,-9.791755218711797326e+00
0.000000000000000000e+00,2.355065892123481497e+00,-9.791754394934127248e+00
0.000000000000000000e+00,2.355065883103756530e+00,-9.791753575624571937e+00
0.000000000000000000e+00,2.355065874133242865e+00,-9.791752760785158216e+00
0.000000000000000000e+00,2.355065865211961373e+00,-9.791751950417886263e+00
0.000000000000000000e+00,2.355065856339933372e+00,-9.791751144524765138e+00
0.000000000000000000e+00,2.355065847517182398e+00,-9.791750343107771926e+00
0.000000000000000000e+00,2.355065838743728879e+00,-9.791749546168890816e+00
0.000000000000000000e+00,2.355065830019594575e+00,-9.791748753710081132e+00
0.000000000000000000e+00,2.355065821344802579e+00,-9.791747965733298642e+00
0.000000000000000000e+00,2.355065812719371543e+00,-9.791747182240490233e+00
0.000000000000000000e+00,2.355065804143325447e+00,-9.791746403233581475e+00
0.000000000000000000e+00,2.355065795616685165e+00,-9.791745628714497940e+00
0.000000000000000000e+00,2.355065787139469791e+00,-9.791744858685150987e+00
0.000000000000000000e+00,2.355065778711700641e+00,-9.791744093147435990e+00
0.000000000000000000e+00,2.355065770333399922e+00,-9.791743332103237663e+00
0.000000000000000000e+00,2.355065762004588503e+00,-9.791742575554442496e+00
0.000000000000000000e+00,2.355065753725285038e+00,-9.791741823502905007e+00
0.000000000000000000e+00,2.355065745495511287e+00,-9.791741075950488593e+00
0.000000000000000000e+00,2.355065737315287677e+00,-9.791740332899033561e+00
0.000000000000000000e+00,2.355065729184632861e+00,-9.791739594350366005e+00
0.000000000000000000e+00,2.355065721103569487e+00,-9.791738860306317349e+00
0.000000000000000000e+00,2.355065713072114431e+00,-9.791738130768694148e+00
0.000000000000000000e+00,2.355065705090289896e+00,-9.791737405739292299e+00
0.000000000000000000e+00,2.355065697158114979e+00,-9.791736685219900593e+00
0.000000000000000000e+00,2.355065689275609664e+00,-9.791735969212300716e+00
0.000000000000000000e+00,2.355065681442791714e+00,-9.791735257718249485e+00
0.000000000000000000e+00,2.355065673659681558e+00,-9.791734550739510823e+00
0.000000000000000000e+00,2.355065665926298735e+00,-9.791733848277822005e+00
0.000000000000000000e+00,2.355065658242662341e+00,-9.791733150334916758e+00
0.000000000000000000e+00,2.355065650608791472e+00,-9.791732456912518145e+00
0.000000000000000000e+00,2.355065643024703448e+00,-9.791731768012331472e+00
0.000000000000000000e+00,2.355065635490417808e+00,-9.791731083636060262e+00
0.000000000000000000e+00,2.355065628005954093e+00,-9.791730403785390280e+00
0.000000000000000000e+00,2.355065620571329621e+00,-9.791729728461994853e+00
0.000000000000000000e+00,2.355065613186563489e+00,-9.791729057667543756e+00
0.000000000000000000e+00,2.355065605851673904e+00,-9.791728391403690779e+00
0.000000000000000000e+00,2.355065598566678187e+00,-9.791727729672079050e+00
0.000000000000000000e+00,2.355065591331594543e+00,-9.791727072474337490e+00
0.000000000000000000e+00,2.355065584146442070e+00,-9.791726419812087912e+00
0.000000000000000000e+00,2.355065577011237199e+00,-9.791725771686939694e+00
0.000000000000000000e+00,2.355065569925997249e+00,-9.791725128100495112e+00
0.000000000000000000e+00,2.355065562890740871e+00,-9.791724489054333347e+00
0.000000000000000000e+00,2.355065555905484054e+00,-9.791723854550037132e+00
0.000000000000000000e+00,2.355065548970245892e+00,-9.791723224589167884e+00
0.000000000000000000e+00,2.355065542085041486e+00,-9.791722599173278141e+00
0.000000000000000000e+00,2.355065535249889486e+00,-9.791721978303913332e+00
0.000000000000000000e+00,2.355065528464805880e+00,-9.791721361982602900e+00
0.000000000000000000e+00,2.355065521729807543e+00,-9.791720750210865631e+00
0.000000000000000000e+00,2.355065515044911795e+00,-9.791720142990207876e+00
0.000000000000000000e+00,2.355065508410133290e+00,-9.791719540322134208e+00
0.000000000000000000e+00,2.355065501825490681e+00,-9.791718942208124332e+00
0.000000000000000000e+00,2.355065495290998623e+00,-9.791718348649656178e+00
0.000000000000000000e+00,2.355065488806673546e+00,-9.791717759648191688e+00
0.000000000000000000e+00,2.355065482372532326e+00,-9.791717175205185697e+00
0.000000000000000000e+00,2.355065475988589618e+00,-9.791716595322075278e+00
0.000000000000000000e+00,2.355065469654862298e+00,-9.791716020000297505e+00
0.000000000000000000e+00,2.355065463371365464e+00,-9.791715449241262803e+00
0.000000000000000000e+00,2.355065457138113771e+00,-9.791714883046385154e+00
0.000000000000000000e+00,2.355065450955124540e+00,-9.791714321417055444e+00
0.000000000000000000e+00,2.355065444822411092e+00,-9.791713764354662786e+00
0.000000000000000000e+00,2.355065438739989858e+00,-9.791713211860578525e+00
0.000000000000000000e+00,2.355065432707874606e+00,-9.791712663936166905e+00
0.000000000000000000e+00,2.355065426726081323e+00,-9.791712120582776180e+00
0.000000000000000000e+00,2.355065420794625553e+00,-9.791711581801749276e+00
0.000000000000000000e+00,2.355065414913519728e+00,-9.791711047594411355e+00
0.000000000000000000e+00,2.355065409082780281e+00,-9.791710517962082250e+00
0.000000000000000000e+00,2.355065403302419647e+00,-9.791709992906067583e+00
0.000000000000000000e+00,2.355065397572453811e+00,-9.791709472427664096e+00
0.000000000000000000e+00,2.355065391892896542e+00,-9.791708956528152541e+00
0.000000000000000000e+00,2.355065386263760718e+00,-9.791708445208804790e+00
0.000000000000000000e+00,2.355065380685062770e+00,-9.791707938470882056e+00
0.000000000000000000e+00,2.355065375156813801e+00,-9.791707436315634894e+00
0.000000000000000000e+00,2.355065369679028908e+00,-9.791706938744299649e+00
0.000000000000000000e+00,2.355065364251720972e+00,-9.791706445758109112e+00
0.000000000000000000e+00,2.355065358874903758e+00,-9.791705957358271206e+00
0.000000000000000000e+00,2.355065353548590146e+00,-9.791705473545995631e+00
0.000000000000000000e+00,2.355065348272793457e+00,-9.791704994322470768e+00
0.000000000000000000e+00,2.355065343047527904e+00,-9.791704519688885000e+00
0.000000000000000000e+00,2.355065337872804143e+00,-9.791704049646401842e+00
0.000000000000000000e+00,2.355065332748636386e+00,-9.791703584196183030e+00
0.000000000000000000e+00,2.355065327675037068e+00,-9.791703123339379644e+00
0.000000000000000000e+00,2.355065322652018622e+00,-9.791702667077119671e+00
0.000000000000000000e+00,2.355065317679593484e+00,-9.791702215410538201e+00
0.000000000000000000e+00,2.355065312757773199e+00,-9.791701768340743683e+00
0.000000000000000000e+00,2.355065307886571091e+00,-9.791701325868837458e+00
0.000000000000000000e+00,2.355065303065998705e+00,-9.791700887995915537e+00
0.000000000000000000e+00,2.355065298296067589e+00,-9.791700454723052616e+00
0.000000000000000000e+00,2.355065293576791063e+00,-9.791700026051318062e+00
0.000000000000000000e+00,2.355065288908178012e+00,-9.791699601981772361e+00
0.000000000000000000e+00,2.355065284290242644e+00,-9.791699182515456457e+00
0.000000000000000000e+00,2.355065279722994731e+00,-9.791698767653404190e+00
0.000000000000000000e+00,2.355065275206445818e+00,-9.791698357396649399e+00
0.000000000000000000e+00,2.355065270740607453e+00,-9.791697951746188622e+00
0.000000000000000000e+00,2.355065266325490292e+00,-9.791697550703032604e+00
0.000000000000000000e+00,2.355065261961105882e+00,-9.791697154268167225e+00
0.000000000000000000e+00,2.355065257647463994e+00,-9.791696762442569479e+00
0.000000000000000000e+00,2.355065253384575730e+00,-9.791696375227205706e+00
0.000000000000000000e+00,2.355065249172452635e+00,-9.791695992623028033e+00
0.000000000000000000e+00,2.355065245011103592e+00,-9.791695614630985034e+00
0.000000000000000000e+00,2.355065240900539258e+00,-9.791695241252009296e+00
0.000000000000000000e+00,2.355065236840769405e+00,-9.791694872487015644e+00
0.000000000000000000e+00,2.355065232831805133e+00,-9.791694508336915348e+00
0.000000000000000000e+00,2.355065228873655769e+00,-9.791694148802610798e+00
0.000000000000000000e+00,2.355065224966331527e+00,-9.791693793884981289e+00
0.000000000000000000e+00,2.355065221109840845e+00,-9.791693443584911449e+00
0.000000000000000000e+00,2.355065217304193936e+00,-9.791693097903255705e+00
0.000000000000000000e+00,2.355065213549401015e+00,-9.791692756840872036e+00
0.000000000000000000e+00,2.355065209845470964e+00,-9.791692420398598884e+00
0.000000000000000000e+00,2.355065206192410887e+00,-9.791692088577267583e+00
0.000000000000000000e+00,2.355065202590233220e+00,-9.791691761377695258e+00
0.000000000000000000e+00,2.355065199038944623e+00,-9.791691438800690150e+00
0.000000000000000000e+00,2.355065195538553979e+00,-9.791691120847046292e+00
0.000000000000000000e+00,2.355065192089070614e+00,-9.791690807517547057e+00
0.000000000000000000e+00,2.355065188690502076e+00,-9.791690498812966936e+00
0.000000000000000000e+00,2.355065185342858136e+00,-9.791690194734066210e+00
0.000000000000000000e+00,2.355065182046146344e+00,-9.791689895281598055e+00
0.000000000000000000e+00,2.355065178800374248e+00,-9.791689600456290776e+00
0.000000000000000000e+00,2.355065175605550287e+00,-9.791689310258885115e+00
0.000000000000000000e+00,2.355065172461683787e+00,-9.791689024690086285e+00
0.000000000000000000e+00,2.355065169368780076e+00,-9.791688743750601276e+00
0.000000000000000000e+00,2.355065166326847592e+00,-9.791688467441126420e+00
0.000000000000000000e+00,2.355065163335894773e+00,-9.791688195762338509e+00
0.000000000000000000e+00,2.355065160395928725e+00,-9.791687928714910782e+00
0.000000000000000000e+00,2.355065157506956108e+00,-9.791687666299495163e+00
0.000000000000000000e+00,2.355065154668984029e+00,-9.791687408516750679e+00
0.000000000000000000e+00,2.355065151882019592e+00,-9.791687155367300832e+00
0.000000000000000000e+00,2.355065149146070791e+00,-9.791686906851778005e+00
0.000000000000000000e+00,2.355065146461142511e+00,-9.791686662970793265e+00
0.000000000000000000e+00,2.355065143827242746e+00,-9.791686423724943467e+00
0.000000000000000000e+00,2.355065141244377713e+00,-9.791686189114823691e+00
0.000000000000000000e+00,2.355065138712553185e+00,-9.791685959141011253e+00
0.000000000000000000e+00,2.355065136231776268e+00,-9.791685733804069258e+00
0.000000000000000000e+00,2.355065133802052291e+00,-9.791685513104564365e+00
0.000000000000000000e+00,2.355065131423387914e+00,-9.791685297043027703e+00
0.000000000000000000e+00,2.355065129095788024e+00,-9.791685085619999285e+00
0.000000000000000000e+00,2.355065126819260612e+00,-9.791684878835994255e+00
0.000000000000000000e+00,2.355065124593808346e+00,-9.791684676691533085e+00
0.000000000000000000e+00,2.355065122419438772e+00,-9.791684479187104273e+00
0.000000000000000000e+00,2.355065120296156334e+00,-9.791684286323199871e+00
0.000000000000000000e+00,2.355065118223966802e+00,-9.791684098100294165e+00
0.000000000000000000e+00,2.355065116202875508e+00,-9.791683914518852561e+00
0.000000000000000000e+00,2.355065114232886003e+00,-9.791683735579326253e+00
0.000000000000000000e+00,2.355065112314004061e+00,-9.791683561282157555e+00
0.000000000000000000e+00,2.355065110446235899e+00,-9.791683391627774569e+00
0.000000000000000000e+00,2.355065108629583737e+00,-9.791683226616594737e+00
0.000000000000000000e+00,2.355065106864052460e+00,-9.791683066249030176e+00
0.000000000000000000e+00,2.355065105149648286e+00,-9.791682910525471684e+00
0.000000000000000000e+00,2.355065103486372102e+00,-9.791682759446304729e+00
0.000000000000000000e+00,2.355065101874231903e+00,-9.791682613011900571e+00
0.000000000000000000e+00,2.355065100313229021e+00,-9.791682471222623363e+00
0.000000000000000000e+00,2.355065098803368784e+00,-9.791682334078821270e+00
0.000000000000000000e+00,2.355065097344652969e+00,-9.791682201580831801e+00
0.000000000000000000e+00,2.355065095937088238e+00,-9.791682073728980029e+00
0.000000000000000000e+00,2.355065094580675034e+00,-9.791681950523583922e+00
0.000000000000000000e+00,2.355065093275418242e+00,-9.791681831964947236e+00
0.000000000000000000e+00,2.355065092021320527e+00,-9.791681718053363070e+00
0.000000000000000000e+00,2.355065090818385887e+00,-9.791681608789106761e+00
0.000000000000000000e+00,2.355065089666616540e+00,-9.791681504172455419e+00
0.000000000000000000e+00,2.355065088566015152e+00,-9.791681404203659511e+00
0.000000000000000000e+00,2.355065087516584832e+00,-9.791681308882971280e+00
0.000000000000000000e+00,2.355065086518327799e+00,-9.791681218210626980e+00
0.000000000000000000e+00,2.355065085571247163e+00,-9.791681132186843328e+00
0.000000000000000000e+00,2.355065084675344700e+00,-9.791681050811838816e+00
0.000000000000000000e+00,2.355065083830622186e+00,-9.791680974085810618e+00
0.000000000000000000e+00,2.355065083037083173e+00,-9.791680902008947029e+00
0.000000000000000000e+00,2.355065082294728551e+00,-9.791680834581429238e+00
0.000000000000000000e+00,2.355065081603560095e+00,-9.791680771803422445e+00
0.000000000000000000e+00,2.355065080963580471e+00,-9.791680713675081194e+00
0.000000000000000000e+00,2.355065080374790121e+00,-9.791680660196549368e+00
0.000000000000000000e+00,2.355065079837190822e+00,-9.791680611367954867e+00
0.000000000000000000e+00,2.355065079350784796e+00,-9.791680567189423812e+00
0.000000000000000000e+00,2.355065078915571597e+00,-9.791680527661059230e+00
0.000000000000000000e+00,2.355065078531552558e+00,-9.791680492782965928e+00
0.000000000000000000e+00,2.355065078198730344e+00,-9.791680462555223841e+00
0.000000000000000000e+00,2.355065077917104510e+00,-9.791680436977909352e+00
0.000000000000000000e+00,2.355065077686675945e+00,-9.791680416051086411e+00
0.000000000000000000e+00,2.355065077507445093e+00,-9.791680399774806531e+00
0.000000000000000000e+00,2.355065077379412397e+00,-9.791680388149108794e+00
0.000000000000000000e+00,2.355065077302578302e+00,-9.791680381174021619e+00
0.000000000000000000e+00,2.355065077276943253e+00,-9.791680378849566324e+00
0.000000000000000000e+00,2.355065077302506804e+00,-9.791680381175742909e+00
0.000000000000000000e+00,2.355065077379268956e+00,-9.791680388152546044e+00
0.000000000000000000e+00,2.355065077507229709e+00,-9.791680399779963295e+00
0.000000000000000000e+00,2.355065077686389063e+00,-9.791680416057960912e+00
0.000000000000000000e+00,2.355065077916745686e+00,-9.791680436986501590e+00
0.000000000000000000e+00,2.355065078198300021e+00,-9.791680462565533816e+00
0.000000000000000000e+00,2.355065078531050737e+00,-9.791680492794995416e+00
0.000000000000000000e+00,2.355065078914996946e+00,-9.791680527674808232e+00
0.000000000000000000e+00,2.355065079350139534e+00,-9.791680567204886998e+00
0.000000000000000000e+00,2.355065079836474062e+00,-9.791680611385139343e+00
0.000000000000000000e+00,2.355065080374000974e+00,-9.791680660215449805e+00
0.000000000000000000e+00,2.355065080962719826e+00,-9.791680713695701144e+00
0.000000000000000000e+00,2.355065081602628396e+00,-9.791680771825760132e+00
0.000000000000000000e+00,2.355065082293724466e+00,-9.791680834605486439e+00
0.000000000000000000e+00,2.355065083036007589e+00,-9.791680902034720191e+00
0.000000000000000000e+00,2.355065083829475103e+00,-9.791680974113301517e+00
0.000000000000000000e+00,2.355065084674125231e+00,-9.791681050841049228e+00
0.000000000000000000e+00,2.355065085569956640e+00,-9.791681132217771477e+00
0.000000000000000000e+00,2.355065086516965778e+00,-9.791681218243271090e+00
0.000000000000000000e+00,2.355065087515150868e+00,-9.791681308917336679e+00
0.000000000000000000e+00,2.355065088564509246e+00,-9.791681404239739095e+00
0.000000000000000000e+00,2.355065089665039135e+00,-9.791681504210249187e+00
0.000000000000000000e+00,2.355065090816736983e+00,-9.791681608828623595e+00
0.000000000000000000e+00,2.355065092019600570e+00,-9.791681718094592313e+00
0.000000000000000000e+00,2.355065093273625454e+00,-9.791681832007897768e+00
0.000000000000000000e+00,2.355065094578811191e+00,-9.791681950568250414e+00
0.000000000000000000e+00,2.355065095935152453e+00,-9.791682073775362483e+00
0.000000000000000000e+00,2.355065097342646574e+00,-9.791682201628930216e+00
0.000000000000000000e+00,2.355065098801289114e+00,-9.791682334128637422e+00
0.000000000000000000e+00,2.355065100311078741e+00,-9.791682471274157251e+00
0.000000000000000000e+00,2.355065101872009237e+00,-9.791682613065150420e+00
0.000000000000000000e+00,2.355065103484078826e+00,-9.791682759501268762e+00
0.000000000000000000e+00,2.355065105147282178e+00,-9.791682910582153454e+00
0.000000000000000000e+00,2.355065106861615742e+00,-9.791683066307427907e+00
0.000000000000000000e+00,2.355065108627074633e+00,-9.791683226676708429e+00
0.000000000000000000e+00,2.355065110443655296e+00,-9.791683391689602445e+00
0.000000000000000000e+00,2.355065112311352848e+00,-9.791683561345701392e+00
0.000000000000000000e+00,2.355065114230162404e+00,-9.791683735644586051e+00
0.000000000000000000e+00,2.355065116200079967e+00,-9.791683914585826543e+00
0.000000000000000000e+00,2.355065118221100651e+00,-9.791684098168984107e+00
0.000000000000000000e+00,2.355065120293218683e+00,-9.791684286393602221e+00
0.000000000000000000e+00,2.355065122416429180e+00,-9.791684479259222584e+00
0.000000000000000000e+00,2.355065124590727255e+00,-9.791684676765365580e+00
0.000000000000000000e+00,2.355065126816107579e+00,-9.791684878911542711e+00
0.000000000000000000e+00,2.355065129092564380e+00,-9.791685085697256596e+00
0.000000000000000000e+00,2.355065131420091884e+00,-9.791685297122002751e+00
0.000000000000000000e+00,2.355065133798685206e+00,-9.791685513185251821e+00
0.000000000000000000e+00,2.355065136228337241e+00,-9.791685733886476228e+00
0.000000000000000000e+00,2.355065138709043548e+00,-9.791685959225123526e+00
0.000000000000000000e+00,2.355065141240795246e+00,-9.791686189200651924e+00
0.000000000000000000e+00,2.355065143823589668e+00,-9.791686423812482332e+00
0.000000000000000000e+00,2.355065146457417935e+00,-9.791686663060044538e+00
0.000000000000000000e+00,2.355065149142274272e+00,-9.791686906942745239e+00
0.000000000000000000e+00,2.355065151878152463e+00,-9.791687155459978698e+00
0.000000000000000000e+00,2.355065154665044957e+00,-9.791687408611137400e+00
0.000000000000000000e+00,2.355065157502945539e+00,-9.791687666395596068e+00
0.000000000000000000e+00,2.355065160391846657e+00,-9.791687928812718766e+00
0.000000000000000000e+00,2.355065163331741207e+00,-9.791688195861860677e+00
0.000000000000000000e+00,2.355065166322622972e+00,-9.791688467542357444e+00
0.000000000000000000e+00,2.355065169364483513e+00,-9.791688743853544707e+00
0.000000000000000000e+00,2.355065172457316169e+00,-9.791689024794736795e+00
0.000000000000000000e+00,2.355065175601112504e+00,-9.791689310365246257e+00
0.000000000000000000e+00,2.355065178795864078e+00,-9.791689600564364326e+00
0.000000000000000000e+00,2.355065182041564675e+00,-9.791689895391375131e+00
0.000000000000000000e+00,2.355065185338205414e+00,-9.791690194845559247e+00
0.000000000000000000e+00,2.355065188685778299e+00,-9.791690498926165276e+00
0.000000000000000000e+00,2.355065192084274450e+00,-9.791690807632454252e+00
0.000000000000000000e+00,2.355065195533687650e+00,-9.791691120963662343e+00
0.000000000000000000e+00,2.355065199034006795e+00,-9.791691438919015056e+00
0.000000000000000000e+00,2.355065202585224338e+00,-9.791691761497727242e+00
0.000000000000000000e+00,2.355065206187331395e+00,-9.791692088699006646e+00
0.000000000000000000e+00,2.355065209840318197e+00,-9.791692420522045026e+00
0.000000000000000000e+00,2.355065213544178526e+00,-9.791692756966021705e+00
0.000000000000000000e+00,2.355065217298899949e+00,-9.791693098030112452e+00
0.000000000000000000e+00,2.355065221104475359e+00,-9.791693443713473499e+00
0.000000000000000000e+00,2.355065224960894987e+00,-9.791693794015252195e+00
0.000000000000000000e+00,2.355065228868148619e+00,-9.791694148934583453e+00
0.000000000000000000e+00,2.355065232826226040e+00,-9.791694508470595082e+00
0.000000000000000000e+00,2.355065236835119702e+00,-9.791694872622397128e+00
0.000000000000000000e+00,2.355065240894817613e+00,-9.791695241389096083e+00
0.000000000000000000e+00,2.355065245005311336e+00,-9.791695614769778899e+00
0.000000000000000000e+00,2.355065249166589769e+00,-9.791695992763523648e+00
0.000000000000000000e+00,2.355065253378642254e+00,-9.791696375369401295e+00
0.000000000000000000e+00,2.355065257641458576e+00,-9.791696762586468594e+00
0.000000000000000000e+00,2.355065261955029854e+00,-9.791697154413769866e+00
0.000000000000000000e+00,2.355065266319343209e+00,-9.791697550850338772e+00
0.000000000000000000e+00,2.355065270734388871e+00,-9.791697951895194763e+00
0.000000000000000000e+00,2.355065275200156627e+00,-9.791698357547353737e+00
0.000000000000000000e+00,2.355065279716634929e+00,-9.791698767805815606e+00
0.000000000000000000e+00,2.355065284283811344e+00,-9.791699182669560741e+00
0.000000000000000000e+00,2.355065288901676102e+00,-9.791699602137578395e+00
0.000000000000000000e+00,2.355065293570217655e+00,-9.791700026208825847e+00
0.000000000000000000e+00,2.355065298289424458e+00,-9.791700454882258597e+00
0.000000000000000000e+00,2.355065303059284076e+00,-9.791700888156819715e+00
0.000000000000000000e+00,2.355065307879785408e+00,-9.791701326031443386e+00
0.000000000000000000e+00,2.355065312750916906e+00,-9.791701768505044257e+00
0.000000000000000000e+00,2.355065317672666136e+00,-9.791702215576535195e+00
0.000000000000000000e+00,2.355065322645020220e+00,-9.791702667244816638e+00
0.000000000000000000e+00,2.355065327667968056e+00,-9.791703123508767703e+00
0.000000000000000000e+00,2.355065332741496764e+00,-9.791703584367272839e+00
0.000000000000000000e+00,2.355065337865593911e+00,-9.791704049819182742e+00
0.000000000000000000e+00,2.355065343040246617e+00,-9.791704519863362322e+00
0.000000000000000000e+00,2.355065348265442449e+00,-9.791704994498646286e+00
0.000000000000000000e+00,2.355065353541167195e+00,-9.791705473723860464e+00
0.000000000000000000e+00,2.355065358867410197e+00,-9.791705957537832461e+00
0.000000000000000000e+00,2.355065364244157244e+00,-9.791706445939361458e+00
0.000000000000000000e+00,2.355065369671393682e+00,-9.791706938927248416e+00
0.000000000000000000e+00,2.355065375149108853e+00,-9.791707436500271200e+00
0.000000000000000000e+00,2.355065380677287212e+00,-9.791707938657213006e+00
0.000000000000000000e+00,2.355065386255914994e+00,-9.791708445396825056e+00
0.000000000000000000e+00,2.355065391884978876e+00,-9.791708956717863899e+00
0.000000000000000000e+00,2.355065397564466423e+00,-9.791709472619066545e+00
0.000000000000000000e+00,2.355065403294361648e+00,-9.791709993099161125e+00
0.000000000000000000e+00,2.355065409074651228e+00,-9.791710518156863330e+00
0.000000000000000000e+00,2.355065414905320953e+00,-9.791711047790879974e+00
0.000000000000000000e+00,2.355065420786355723e+00,-9.791711581999907210e+00
0.000000000000000000e+00,2.355065426717742216e+00,-9.791712120782623430e+00
0.000000000000000000e+00,2.355065432699464445e+00,-9.791712664137699917e+00
0.000000000000000000e+00,2.355065438731508642e+00,-9.791713212063799077e+00
0.000000000000000000e+00,2.355065444813859710e+00,-9.791713764559569100e+00
0.000000000000000000e+00,2.355065450946502548e+00,-9.791714321623649298e+00
0.000000000000000000e+00,2.355065457129422057e+00,-9.791714883254661217e+00
0.000000000000000000e+00,2.355065463362603140e+00,-9.791715449451224629e+00
0.000000000000000000e+00,2.355065469646030252e+00,-9.791716020211941540e+00
0.000000000000000000e+00,2.355065475979687850e+00,-9.791716595535406853e+00
0.000000000000000000e+00,2.355065482363559504e+00,-9.791717175420195929e+00
0.000000000000000000e+00,2.355065488797630557e+00,-9.791717759864885906e+00
0.000000000000000000e+00,2.355065495281885024e+00,-9.791718348868030830e+00
0.000000000000000000e+00,2.355065501816307361e+00,-9.791718942428181194e+00
0.000000000000000000e+00,2.355065508400880248e+00,-9.791719540543869726e+00
0.000000000000000000e+00,2.355065515035587698e+00,-9.791720143213625605e+00
0.000000000000000000e+00,2.355065521720414168e+00,-9.791720750435958465e+00
0.000000000000000000e+00,2.355065528455341894e+00,-9.791721362209377943e+00
0.000000000000000000e+00,2.355065535240355779e+00,-9.791721978532367032e+00
0.000000000000000000e+00,2.355065542075437612e+00,-9.791722599403410499e+00
0.000000000000000000e+00,2.355065548960571409e+00,-9.791723224820973570e+00
0.000000000000000000e+00,2.355065555895741181e+00,-9.791723854783521475e+00
0.000000000000000000e+00,2.355065562880926944e+00,-9.791724489289492794e+00
0.000000000000000000e+00,2.355065569916114043e+00,-9.791725128337327888e+00
0.000000000000000000e+00,2.355065577001283383e+00,-9.791725771925451127e+00
0.000000000000000000e+00,2.355065584136418977e+00,-9.791726420052269120e+00
0.000000000000000000e+00,2.355065591321502172e+00,-9.791727072716193803e+00
0.000000000000000000e+00,2.355065598556515205e+00,-9.791727729915606915e+00
0.000000000000000000e+00,2.355065605841441645e+00,-9.791728391648891971e+00
0.000000000000000000e+00,2.355065613176261508e+00,-9.791729057914416501e+00
0.000000000000000000e+00,2.355065620560957917e+00,-9.791729728710537373e+00
0.000000000000000000e+00,2.355065627995512667e+00,-9.791730404035600799e+00
0.000000000000000000e+00,2.355065635479907105e+00,-9.791731083887942333e+00
0.000000000000000000e+00,2.355065643014121690e+00,-9.791731768265881541e+00
0.000000000000000000e+00,2.355065650598140881e+00,-9.791732457167734438e+00
0.000000000000000000e+00,2.355065658231942471e+00,-9.791733150591802826e+00
0.000000000000000000e+00,2.355065665915509143e+00,-9.791733848536372520e+00
0.000000000000000000e+00,2.355065673648822688e+00,-9.791734550999727560e+00
0.000000000000000000e+00,2.355065681431862679e+00,-9.791735257980132445e+00
0.000000000000000000e+00,2.355065689264611350e+00,-9.791735969475844570e+00
0.000000000000000000e+00,2.355065697147047832e+00,-9.791736685485114222e+00
0.000000000000000000e+00,2.355065705079153027e+00,-9.791737406006165045e+00
0.000000000000000000e+00,2.355065713060908283e+00,-9.791738131037229564e+00
0.000000000000000000e+00,2.355065721092293174e+00,-9.791738860576517212e+00
0.000000000000000000e+00,2.355065729173288158e+00,-9.791739594622226761e+00
0.000000000000000000e+00,2.355065737303872808e+00,-9.791740333172549882e+00
0.000000000000000000e+00,2.355065745484027584e+00,-9.791741076225669360e+00
0.000000000000000000e+00,2.355065753713732501e+00,-9.791741823779744891e+00
0.000000000000000000e+00,2.355065761992966245e+00,-9.791742575832936168e+00
0.000000000000000000e+00,2.355065770321709717e+00,-9.791743332383394005e+00
0.000000000000000000e+00,2.355065778699940271e+00,-9.791744093429244344e+00
0.000000000000000000e+00,2.355065787127639698e+00,-9.791744858968618459e+00
0.000000000000000000e+00,2.355065795604786683e+00,-9.791745628999620976e+00
0.000000000000000000e+00,2.355065804131358576e+00,-9.791746403520356523e+00
0.000000000000000000e+00,2.355065812707335393e+00,-9.791747182528919069e+00
0.000000000000000000e+00,2.355065821332696263e+00,-9.791747966023383043e+00
0.000000000000000000e+00,2.355065830007420757e+00,-9.791748754001813992e+00
0.000000000000000000e+00,2.355065838731485339e+00,-9.791749546462275688e+00
0.000000000000000000e+00,2.355065847504870469e+00,-9.791750343402810586e+00
0.000000000000000000e+00,2.355065856327552609e+00,-9.791751144821450481e+00
0.000000000000000000e+00,2.355065865199511332e+00,-9.791751950716223618e+00
0.000000000000000000e+00,2.355065874120723990e+00,-9.791752761085138701e+00
0.000000000000000000e+00,2.355065883091169709e+00,-9.791753575926204434e+00
0.000000000000000000e+00,2.355065892110824954e+00,-9.791754395237402875e+00
0.000000000000000000e+00,2.355065901179668852e+00,-9.791755219016721412e+00
0.000000000000000000e+00,2.355065910297677423e+00,-9.791756047262120788e+00
0.000000000000000000e+00,2.355065919464828905e+00,-9.791756879971563521e+00
0.000000000000000000e+00,2.355065928681101539e+00,-9.791757717142996142e+00
0.000000000000000000e+00,2.355065937946470900e+00,-9.791758558774354526e+00
0.000000000000000000e+00,2.355065947260916115e+00,-9.791759404863560334e+00
0.000000000000000000e+00,2.355065956624412316e+00,-9.791760255408528124e+00
0.000000000000000000e+00,2.355065966036937297e+00,-9.791761110407163571e+00
0.000000000000000000e+00,2.355065975498468411e+00,-9.791761969857354586e+00
0.000000000000000000e+00,2.355065985008980789e+00,-9.791762833756983753e+00
0.000000000000000000e+00,2.355065994568452670e+00,-9.791763702103921219e+00
0.000000000000000000e+00,2.355066004176859185e+00,-9.791764574896022921e+00
0.000000000000000000e+00,2.355066013834176353e+00,-9.791765452131139469e+00
0.000000000000000000e+00,2.355066023540381526e+00,-9.791766333807105482e+00
0.000000000000000000e+00,2.355066033295450723e+00,-9.791767219921750254e+00
0.000000000000000000e+00,2.355066043099359074e+00,-9.791768110472883535e+00
0.000000000000000000e+00,2.355066052952082600e+00,-9.791769005458313302e+00
0.000000000000000000e+00,2.355066062853597320e+00,-9.791769904875831543e+00
0.000000000000000000e+00,2.355066072803878363e+00,-9.791770808723219588e+00
0.000000000000000000e+00,2.355066082802900862e+00,-9.791771716998248110e+00
0.000000000000000000e+00,2.355066092850641279e+00,-9.791772629698678898e+00
0.000000000000000000e+00,2.355066102947073858e+00,-9.791773546822263086e+00
0.000000000000000000e+00,2.355066113092174618e+00,-9.791774468366732265e+00
0.000000000000000000e+00,2.355066123285916913e+00,-9.791775394329821580e+00
0.000000000000000000e+00,2.355066133528277206e+00,-9.791776324709243084e+00
0.000000000000000000e+00,2.355066143819229740e+00,-9.791777259502705277e+00
0.000000000000000000e+00,2.355066154158748759e+00,-9.791778198707900671e+00
0.000000000000000000e+00,2.355066164546809393e+00,-9.791779142322512897e+00
0.000000000000000000e+00,2.355066174983384997e+00,-9.791780090344216703e+00
0.000000000000000000e+00,2.355066185468450701e+00,-9.791781042770674404e+00
0.000000000000000000e+00,2.355066196001979861e+00,-9.791781999599537656e+00
0.000000000000000000e+00,2.355066206583947608e+00,-9.791782960828443905e+00
0.000000000000000000e+00,2.355066217214326407e+00,-9.791783926455025266e+00
0.000000000000000000e+00,2.355066227893091835e+00,-9.791784896476903199e+00
0.000000000000000000e+00,2.355066238620215469e+00,-9.791785870891681398e+00
0.000000000000000000e+00,2.355066249395672884e+00,-9.791786849696954675e+00
0.000000000000000000e+00,2.355066260219435659e+00,-9.791787832890317844e+00
0.000000000000000000e+00,2.355066271091478036e+00,-9.791788820469339072e+00
0.000000000000000000e+00,2.355066282011773371e+00,-9.791789812431584750e+00
0.000000000000000000e+00,2.355066292980293685e+00,-9.791790808774612387e+00
0.000000000000000000e+00,2.355066303997013222e+00,-9.791791809495958177e+00
0.000000000000000000e+00,2.355066315061903559e+00,-9.791792814593161864e+00
0.000000000000000000e+00,2.355066326174938496e+00,-9.791793824063736551e+00
0.000000000000000000e+00,2.355066337336089610e+00,-9.791794837905202442e+00
0.000000000000000000e+00,2.355066348545330701e+00,-9.791795856115053098e+00
0.000000000000000000e+00,2.355066359802632459e+00,-9.791796878690780304e+00
0.000000000000000000e+00,2.355066371107968681e+00,-9.791797905629858079e+00
0.000000000000000000e+00,2.355066382461310504e+00,-9.791798936929758668e+00
0.000000000000000000e+00,2.355066393862629948e+00,-9.791799972587936551e+00
0.000000000000000000e+00,2.355066405311898592e+00,-9.791801012601839105e+00
0.000000000000000000e+00,2.355066416809088903e+00,-9.791802056968903045e+00
0.000000000000000000e+00,2.355066428354172459e+00,-9.791803105686550879e+00
0.000000000000000000e+00,2.355066439947119949e+00,-9.791804158752196230e+00
0.000000000000000000e+00,2.355066451587903398e+00,-9.791805216163243841e+00
0.000000000000000000e+00,2.355066463276495270e+00,-9.791806277917082468e+00
0.000000000000000000e+00,2.355066475012864036e+00,-9.791807344011099090e+00
0.000000000000000000e+00,2.355066486796983050e+00,-9.791808414442659370e+00
0.000000000000000000e+00,2.355066498628821670e+00,-9.791809489209128969e+00
0.000000000000000000e+00,2.355066510508351474e+00,-9.791810568307854012e+00
0.000000000000000000e+00,2.355066522435543597e+00,-9.791811651736175293e+00
0.000000000000000000e+00,2.355066534410367396e+00,-9.791812739491421169e+00
0.000000000000000000e+00,2.355066546432794450e+00,-9.791813831570907567e+00
0.000000000000000000e+00,2.355066558502794560e+00,-9.791814927971939753e+00
0.000000000000000000e+00,2.355066570620337529e+00,-9.791816028691817664e+00
0.000000000000000000e+00,2.355066582785394935e+00,-9.791817133727828804e+00
0.000000000000000000e+00,2.355066594997934359e+00,-9.791818243077241135e+00
0.000000000000000000e+00,2.355066607257928268e+00,-9.791819356737324398e+00
0.000000000000000000e+00,2.355066619565344688e+00,-9.791820474705330568e+00
0.000000000000000000e+00,2.355066631920153419e+00,-9.791821596978504516e+00
0.000000000000000000e+00,2.355066644322324265e+00,-9.791822723554075125e+00
0.000000000000000000e+00,2.355066656771827471e+00,-9.791823854429267726e+00
0.000000000000000000e+00,2.355066669268630619e+00,-9.791824989601293439e+00
0.000000000000000000e+00,2.355066681812703511e+00,-9.791826129067347395e+00
0.000000000000000000e+00,2.355066694404016836e+00,-9.791827272824628281e+00
0.000000000000000000e+00,2.355066707042536844e+00,-9.791828420870311689e+00
0.000000000000000000e+00,2.355066719728233782e+00,-9.791829573201562553e+00
0.000000000000000000e+00,2.355066732461076562e+00,-9.791830729815545808e+00
0.000000000000000000e+00,2.355066745241033210e+00,-9.791831890709403297e+00
0.000000000000000000e+00,2.355066758068072197e+00,-9.791833055880275083e+00
0.000000000000000000e+00,2.355066770942161991e+00,-9.791834225325292351e+00
0.000000000000000000e+00,2.355066783863271063e+00,-9.791835399041564969e+00
0.000000000000000000e+00,2.355066796831366549e+00,-9.791836577026197475e+00
0.000000000000000000e+00,2.355066809846418252e+00,-9.791837759276292630e+00
0.000000000000000000e+00,2.355066822908392421e+00,-9.791838945788926551e+00
0.000000000000000000e+00,2.355066836017257970e+00,-9.791840136561177133e+00
0.000000000000000000e+00,2.355066849172980703e+00,-9.791841331590109831e+00
0.000000000000000000e+00,2.355066862375530867e+00,-9.791842530872775896e+00
0.000000000000000000e+00,2.355066875624873379e+00,-9.791843734406215916e+00
0.000000000000000000e+00,2.355066888920977153e+00,-9.791844942187465151e+00
0.000000000000000000e+00,2.355066902263808437e+00,-9.791846154213542874e+00
0.000000000000000000e+00,2.355066915653335258e+00,-9.791847370481461255e+00
0.000000000000000000e+00,2.355066929089523864e+00,-9.791848590988218248e+00
0.000000000000000000e+00,2.355066942572340505e+00,-9.791849815730811812e+00
0.000000000000000000e+00,2.355066956101753650e+00,-9.791851044706213258e+00
0.000000000000000000e+00,2.355066969677727773e+00,-9.791852277911397451e+00
0.000000000000000000e+00,2.355066983300231342e+00,-9.791853515343316161e+00
0.000000000000000000e+00,2.355066996969229720e+00,-9.791854756998924714e+00
0.000000000000000000e+00,2.355067010684689599e+00,-9.791856002875160669e+00
0.000000000000000000e+00,2.355067024446576784e+00,-9.791857252968949155e+00
0.000000000000000000e+00,2.355067038254856637e+00,-9.791858507277209966e+00
0.000000000000000000e+00,2.355067052109495851e+00,-9.791859765796848691e+00
0.000000000000000000e+00,2.355067066010462007e+00,-9.791861028524756705e+00
0.000000000000000000e+00,2.355067079957717802e+00,-9.791862295457828935e+00
0.000000000000000000e+00,2.355067093951229928e+00,-9.791863566592937218e+00
0.000000000000000000e+00,2.355067107990963304e+00,-9.791864841926944507e+00
0.000000000000000000e+00,2.355067122076885067e+00,-9.791866121456704875e+00
0.000000000000000000e+00,2.355067136208958356e+00,-9.791867405179072392e+00
0.000000000000000000e+00,2.355067150387150754e+00,-9.791868693090870934e+00
0.000000000000000000e+00,2.355067164611424069e+00,-9.791869985188933256e+00
0.000000000000000000e+00,2.355067178881746326e+00,-9.791871281470063693e+00
0.000000000000000000e+00,2.355067193198080222e+00,-9.791872581931071906e+00
0.000000000000000000e+00,2.355067207560391118e+00,-9.791873886568748020e+00
0.000000000000000000e+00,2.355067221968643487e+00,-9.791875195379876828e+00
0.000000000000000000e+00,2.355067236422801802e+00,-9.791876508361227138e+00
0.000000000000000000e+00,2.355067250922830979e+00,-9.791877825509567757e+00
0.000000000000000000e+00,2.355067265468693716e+00,-9.791879146821642621e+00
0.000000000000000000e+00,2.355067280060355817e+00,-9.791880472294200999e+00
0.000000000000000000e+00,2.355067294697780422e+00,-9.791881801923970841e+00
0.000000000000000000e+00,2.355067309380931562e+00,-9.791883135707667662e+00
0.000000000000000000e+00,2.355067324109772375e+00,-9.791884473642010533e+00
0.000000000000000000e+00,2.355067338884268224e+00,-9.791885815723697206e+00
0.000000000000000000e+00,2.355067353704380029e+00,-9.791887161949418328e+00
0.000000000000000000e+00,2.355067368570073594e+00,-9.791888512315852111e+00
0.000000000000000000e+00,2.355067383481311616e+00,-9.791889866819667887e+00
0.000000000000000000e+00,2.355067398438056792e+00,-9.791891225457533210e+00
0.000000000000000000e+00,2.355067413440272706e+00,-9.791892588226085437e+00
0.000000000000000000e+00,2.355067428487921166e+00,-9.791893955121972581e+00
0.000000000000000000e+00,2.355067443580966202e+00,-9.791895326141821343e+00
0.000000000000000000e+00,2.355067458719371398e+00,-9.791896701282254867e+00
0.000000000000000000e+00,2.355067473903097230e+00,-9.791898080539873206e+00
0.000000000000000000e+00,2.355067489132107728e+00,-9.791899463911279966e+00
0.000000000000000000e+00,2.355067504406364254e+00,-9.791900851393062766e+00
0.000000000000000000e+00,2.355067519725830394e+00,-9.791902242981803894e+00
0.000000000000000000e+00,2.355067535090467956e+00,-9.791903638674066102e+00
0.000000000000000000e+00,2.355067550500237861e+00,-9.791905038466410360e+00
0.000000000000000000e+00,2.355067565955103692e+00,-9.791906442355383433e+00
0.000000000000000000e+00,2.355067581455026371e+00,-9.791907850337524977e+00
0.000000000000000000e+00,2.355067596999967705e+00,-9.791909262409363990e+00
0.000000000000000000e+00,2.355067612589890391e+00,-9.791910678567411708e+00
0.000000000000000000e+00,2.355067628224753573e+00,-9.791912098808182918e+00
0.000000000000000000e+00,2.355067643904520835e+00,-9.791913523128171093e+00
0.000000000000000000e+00,2.355067659629152654e+00,-9.791914951523866151e+00
0.000000000000000000e+00,2.355067675398610838e+00,-9.791916383991742023e+00
0.000000000000000000e+00,2.355067691212855863e+00,-9.791917820528270866e+00
0.000000000000000000e+00,2.355067707071848204e+00,-9.791919261129908847e+00
0.000000000000000000e+00,2.355067722975550559e+00,-9.791920705793101476e+00
0.000000000000000000e+00,2.355067738923921183e+00,-9.791922154514285381e+00
0.000000000000000000e+00,2.355067754916923217e+00,-9.791923607289890086e+00
0.000000000000000000e+00,2.355067770954514916e+00,-9.791925064116330901e+00
0.000000000000000000e+00,2.355067787036658089e+00,-9.791926524990016034e+00
0.000000000000000000e+00,2.355067803163313211e+00,-9.791927989907346586e+00
0.000000000000000000e+00,2.355067819334439427e+00,-9.791929458864704117e+00
0.000000000000000000e+00,2.355067835549998101e+00,-9.791930931858471965e+00
0.000000000000000000e+00,2.355067851809947488e+00,-9.791932408885013928e+00
0.000000000000000000e+00,2.355067868114249396e+00,-9.791933889940684921e+00
0.000000000000000000e+00,2.355067884462862082e+00,-9.791935375021834531e+00
0.000000000000000000e+00,2.355067900855746466e+00,-9.791936864124807016e+00
0.000000000000000000e+00,2.355067917292861246e+00,-9.791938357245921765e+00
0.000000000000000000e+00,2.355067933774166011e+00,-9.791939854381498165e+00
0.000000000000000000e+00,2.355067950299620350e+00,-9.791941355527843172e+00
0.000000000000000000e+00,2.355067966869182960e+00,-9.791942860681261962e+00
0.000000000000000000e+00,2.355067983482812988e+00,-9.791944369838036621e+00
0.000000000000000000e+00,2.355068000140470019e+00,-9.791945882994443906e+00
0.000000000000000000e+00,2.355068016842112755e+00,-9.791947400146757019e+00
0.000000000000000000e+00,2.355068033587699450e+00,-9.791948921291233177e+00
0.000000000000000000e+00,2.355068050377189248e+00,-9.791950446424118937e+00
0.000000000000000000e+00,2.355068067210540406e+00,-9.791951975541653752e+00
0.000000000000000000e+00,2.355068084087712066e+00,-9.791953508640066417e+00
0.000000000000000000e+00,2.355068101008662484e+00,-9.791955045715582173e+00
0.000000000000000000e+00,2.355068117973348141e+00,-9.791956586764399617e+00
0.000000000000000000e+00,2.355068134981729955e+00,-9.791958131782726227e+00
0.000000000000000000e+00,2.355068152033763962e+00,-9.791959680766746388e+00
0.000000000000000000e+00,2.355068169129408862e+00,-9.791961233712649815e+00
0.000000000000000000e+00,2.355068186268622021e+00,-9.791962790616597800e+00
0.000000000000000000e+00,2.355068203451362141e+00,-9.791964351474749861e+00
0.000000000000000000e+00,2.355068220677585256e+00,-9.791965916283265514e+00
0.000000000000000000e+00,2.355068237947249621e+00,-9.791967485038279406e+00
0.000000000000000000e+00,2.355068255260313936e+00,-9.791969057735922632e+00
0.000000000000000000e+00,2.355068272616732905e+00,-9.791970634372320959e+00
0.000000000000000000e+00,2.355068290016465671e+00,-9.791972214943580610e+00
0.000000000000000000e+00,2.355068307459468713e+00,-9.791973799445806037e+00
0.000000000000000000e+00,2.355068324945698510e+00,-9.791975387875089254e+00
0.000000000000000000e+00,2.355068342475112431e+00,-9.791976980227518723e+00
0.000000000000000000e+00,2.355068360047667397e+00,-9.791978576499158038e+00
0.000000000000000000e+00,2.355068377663319446e+00,-9.791980176686076121e+00
0.000000000000000000e+00,2.355068395322025054e+00,-9.791981780784327682e+00
0.000000000000000000e+00,2.355068413023741591e+00,-9.791983388789951448e+00
0.000000000000000000e+00,2.355068430768425092e+00,-9.791985000698989694e+00
0.000000000000000000e+00,2.355068448556030258e+00,-9.791986616507461605e+00
0.000000000000000000e+00,2.355068466386515791e+00,-9.791988236211382812e+00
0.000000000000000000e+00,2.355068484259834616e+00,-9.791989859806760066e+00
0.000000000000000000e+00,2.355068502175945877e+00,-9.791991487289587681e+00
0.000000000000000000e+00,2.355068520134802945e+00,-9.791993118655854644e+00
0.000000000000000000e+00,2.355068538136362299e+00,-9.791994753901537507e+00
0.000000000000000000e+00,2.355068556180579531e+00,-9.791996393022602163e+00
0.000000000000000000e+00,2.355068574267410231e+00,-9.791998036015005624e+00
0.000000000000000000e+00,2.355068592396809546e+00,-9.791999682874699573e+00
0.000000000000000000e+00,2.355068610568733511e+00,-9.792001333597616153e+00
0.000000000000000000e+00,2.355068628783136386e+00,-9.792002988179692835e+00
0.000000000000000000e+00,2.355068647039972873e+00,-9.792004646616843999e+00
0.000000000000000000e+00,2.355068665339198564e+00,-9.792006308904980472e+00
0.000000000000000000e+00,2.355068683680768604e+00,-9.792007975040000645e+00
0.000000000000000000e+00,2.355068702064637254e+00,-9.792009645017801134e+00
0.000000000000000000e+00,2.355068720490759215e+00,-9.792011318834259015e+00
0.000000000000000000e+00,2.355068738959089192e+00,-9.792012996485247811e+00
0.000000000000000000e+00,2.355068757469581442e+00,-9.792014677966628611e+00
0.000000000000000000e+00,2.355068776022189336e+00,-9.792016363274258950e+00
0.000000000000000000e+00,2.355068794616869354e+00,-9.792018052403975048e+00
0.000000000000000000e+00,2.355068813253573534e+00,-9.792019745351620230e+00
0.000000000000000000e+00,2.355068831932257467e+00,-9.792021442113014729e+00
0.000000000000000000e+00,2.355068850652873635e+00,-9.792023142683971670e+00
0.000000000000000000e+00,2.355068869415376298e+00,-9.792024847060302406e+00
0.000000000000000000e+00,2.355068888219720158e+00,-9.792026555237800522e+00
0.000000000000000000e+00,2.355068907065856809e+00,-9.792028267212252501e+00
0.000000000000000000e+00,2.355068925953741843e+00,-9.792029982979439495e+00
0.000000000000000000e+00,2.355068944883327298e+00,-9.792031702535130222e+00
0.000000000000000000e+00,2.355068963854566988e+00,-9.792033425875080965e+00
0.000000000000000000e+00,2.355068982867414284e+00,-9.792035152995042679e+00
0.000000000000000000e+00,2.355069001921820782e+00,-9.792036883890755661e+00
0.000000000000000000e+00,2.355069021017741626e+00,-9.792038618557953100e+00
0.000000000000000000e+00,2.355069040155128413e+00,-9.792040356992353978e+00
0.000000000000000000e+00,2.355069059333934067e+00,-9.792042099189675497e+00
0.000000000000000000e+00,2.355069078554111517e+00,-9.792043845145617098e+00
0.000000000000000000e+00,2.355069097815613244e+00,-9.792045594855874668e+00
0.000000000000000000e+00,2.355069117118392175e+00,-9.792047348316131661e+00
0.000000000000000000e+00,2.355069136462399015e+00,-9.792049105522066199e+00
0.000000000000000000e+00,2.355069155847588025e+00,-9.792050866469342196e+00
0.000000000000000000e+00,2.355069175273911242e+00,-9.792052631153618236e+00
0.000000000000000000e+00,2.355069194741318039e+00,-9.792054399570544021e+00
0.000000000000000000e+00,2.355069214249764009e+00,-9.792056171715755042e+00
0.000000000000000000e+00,2.355069233799198081e+00,-9.792057947584881461e+00
0.000000000000000000e+00,2.355069253389574069e+00,-9.792059727173544559e+00
0.000000000000000000e+00,2.355069273020843124e+00,-9.792061510477353181e+00
0.000000000000000000e+00,2.355069292692955507e+00,-9.792063297491916174e+00
0.000000000000000000e+00,2.355069312405864590e+00,-9.792065088212821067e+00
0.000000000000000000e+00,2.355069332159520190e+00,-9.792066882635648284e+00
0.000000000000000000e+00,2.355069351953874790e+00,-9.792068680755976473e+00
0.000000000000000000e+00,2.355069371788878652e+00,-9.792070482569375400e+00
0.000000000000000000e+00,2.355069391664482925e+00,-9.792072288071393515e+00
0.000000000000000000e+00,2.355069411580639205e+00,-9.792074097257581045e+00
0.000000000000000000e+00,2.355069431537296865e+00,-9.792075910123481108e+00
0.000000000000000000e+00,2.355069451534408831e+00,-9.792077726664615511e+00
0.000000000000000000e+00,2.355069471571924034e+00,-9.792079546876506058e+00
0.000000000000000000e+00,2.355069491649793179e+00,-9.792081370754669223e+00
0.000000000000000000e+00,2.355069511767966972e+00,-9.792083198294600166e+00
0.000000000000000000e+00,2.355069531926397008e+00,-9.792085029491792270e+00
0.000000000000000000e+00,2.355069552125032217e+00,-9.792086864341733587e+00
0.000000000000000000e+00,2.355069572363821973e+00,-9.792088702839896186e+00
0.000000000000000000e+00,2.355069592642719201e+00,-9.792090544981750355e+00
0.000000000000000000e+00,2.355069612961670167e+00,-9.792092390762743292e+00
0.000000000000000000e+00,2.355069633320627354e+00,-9.792094240178331077e+00
0.000000000000000000e+00,2.355069653719539247e+00,-9.792096093223952025e+00
0.000000000000000000e+00,2.355069674158356108e+00,-9.792097949895032016e+00
0.000000000000000000e+00,2.355069694637028199e+00,-9.792099810186998710e+00
0.000000000000000000e+00,2.355069715155504007e+00,-9.792101674095254893e+00
0.000000000000000000e+00,2.355069735713732459e+00,-9.792103541615212237e+00
0.000000000000000000e+00,2.355069756311662932e+00,-9.792105412742261095e+00
0.000000000000000000e+00,2.355069776949245242e+00,-9.792107287471790045e+00
0.000000000000000000e+00,2.355069797626429207e+00,-9.792109165799169901e+00
0.000000000000000000e+00,2.355069818343162424e+00,-9.792111047719771477e+00
0.000000000000000000e+00,2.355069839099394269e+00,-9.792112933228954930e+00
0.000000000000000000e+00,2.355069859895073225e+00,-9.792114822322067980e+00
0.000000000000000000e+00,2.355069880730148224e+00,-9.792116714994449467e+00
0.000000000000000000e+00,2.355069901604568194e+00,-9.792118611241438231e+00
0.000000000000000000e+00,2.355069922518280290e+00,-9.792120511058355348e+00
0.000000000000000000e+00,2.355069943471235661e+00,-9.792122414440511236e+00
0.000000000000000000e+00,2.355069964463379240e+00,-9.792124321383214536e+00
0.000000000000000000e+00,2.355069985494661733e+00,-9.792126231881763232e+00
0.000000000000000000e+00,2.355070006565029406e+00,-9.792128145931444649e+00
0.000000000000000000e+00,2.355070027674432520e+00,-9.792130063527539008e+00
0.000000000000000000e+00,2.355070048822816897e+00,-9.792131984665314093e+00
0.000000000000000000e+00,2.355070070010131023e+00,-9.792133909340035913e+00
0.000000000000000000e+00,2.355070091236322494e+00,-9.792135837546956267e+00
0.000000000000000000e+00,2.355070112501339352e+00,-9.792137769281314519e+00
0.000000000000000000e+00,2.355070133805128307e+00,-9.792139704538358913e+00
0.000000000000000000e+00,2.355070155147637845e+00,-9.792141643313305721e+00
0.000000000000000000e+00,2.355070176528815562e+00,-9.792143585601376543e+00
0.000000000000000000e+00,2.355070197948606392e+00,-9.792145531397782321e+00
0.000000000000000000e+00,2.355070219406960152e+00,-9.792147480697719786e+00
0.000000000000000000e+00,2.355070240903822221e+00,-9.792149433496389221e+00
0.000000000000000000e+00,2.355070262439140638e+00,-9.792151389788969595e+00
0.000000000000000000e+00,2.355070284012861226e+00,-9.792153349570636323e+00
0.000000000000000000e+00,2.355070305624931137e+00,-9.792155312836555936e+00
0.000000000000000000e+00,2.355070327275297526e+00,-9.792157279581887863e+00
0.000000000000000000e+00,2.355070348963906213e+00,-9.792159249801780874e+00
0.000000000000000000e+00,2.355070370690704351e+00,-9.792161223491378408e+00
0.000000000000000000e+00,2.355070392455637762e+00,-9.792163200645807919e+00
0.000000000000000000e+00,2.355070414258652711e+00,-9.792165181260193307e+00
0.000000000000000000e+00,2.355070436099696352e+00,-9.792167165329656697e+00
0.000000000000000000e+00,2.355070457978713616e+00,-9.792169152849300673e+00
0.000000000000000000e+00,2.355070479895650770e+00,-9.792171143814218937e+00
0.000000000000000000e+00,2.355070501850454967e+00,-9.792173138219506967e+00
0.000000000000000000e+00,2.355070523843069363e+00,-9.792175136060246032e+00
0.000000000000000000e+00,2.355070545873442445e+00,-9.792177137331503189e+00
0.000000000000000000e+00,2.355070567941518256e+00,-9.792179142028350824e+00
0.000000000000000000e+00,2.355070590047243506e+00,-9.792181150145841784e+00
0.000000000000000000e+00,2.355070612190562240e+00,-9.792183161679018255e+00
0.000000000000000000e+00,2.355070634371421168e+00,-9.792185176622927756e+00
0.000000000000000000e+00,2.355070656589763889e+00,-9.792187194972592934e+00
0.000000000000000000e+00,2.355070678845537557e+00,-9.792189216723041767e+00
0.000000000000000000e+00,2.355070701138685774e+00,-9.792191241869284468e+00
0.000000000000000000e+00,2.355070723469153471e+00,-9.792193270406329475e+00
0.000000000000000000e+00,2.355070745836886914e+00,-9.792195302329169238e+00
0.000000000000000000e+00,2.355070768241830592e+00,-9.792197337632799758e+00
0.000000000000000000e+00,2.355070790683928106e+00,-9.792199376312193948e+00
0.000000000000000000e+00,2.355070813163123944e+00,-9.792201418362324716e+00
0.000000000000000000e+00,2.355070835679364372e+00,-9.792203463778161421e+00
0.000000000000000000e+00,2.355070858232592101e+00,-9.792205512554655655e+00
0.000000000000000000e+00,2.355070880822752954e+00,-9.792207564686755461e+00
0.000000000000000000e+00,2.355070903449789199e+00,-9.792209620169396445e+00
0.000000000000000000e+00,2.355070926113647101e+00,-9.792211678997512436e+00
0.000000000000000000e+00,2.355070948814270704e+00,-9.792213741166026608e+00
0.000000000000000000e+00,2.355070971551601389e+00,-9.792215806669846145e+00
0.000000000000000000e+00,2.355070994325585865e+00,-9.792217875503887115e+00
0.000000000000000000e+00,2.355071017136166844e+00,-9.792219947663040713e+00
0.000000000000000000e+00,2.355071039983287928e+00,-9.792222023142199916e+00
0.000000000000000000e+00,2.355071062866892717e+00,-9.792224101936241709e+00
0.000000000000000000e+00,2.355071085786925256e+00,-9.792226184040039527e+00
0.000000000000000000e+00,2.355071108743327812e+00,-9.792228269448459699e+00
0.000000000000000000e+00,2.355071131736044876e+00,-9.792230358156363224e+00
0.000000000000000000e+00,2.355071154765020047e+00,-9.792232450158589785e+00
0.000000000000000000e+00,2.355071177830195150e+00,-9.792234545449986172e+00
0.000000000000000000e+00,2.355071200931513786e+00,-9.792236644025384962e+00
0.000000000000000000e+00,2.355071224068919555e+00,-9.792238745879606299e+00
0.000000000000000000e+00,2.355071247242354726e+00,-9.792240851007468549e+00
0.000000000000000000e+00,2.355071270451762455e+00,-9.792242959403781200e+00
0.000000000000000000e+00,2.355071293697085011e+00,-9.792245071063339523e+00
0.000000000000000000e+00,2.355071316978265550e+00,-9.792247185980940571e+00
0.000000000000000000e+00,2.355071340295245452e+00,-9.792249304151368960e+00
0.000000000000000000e+00,2.355071363647969207e+00,-9.792251425569393319e+00
0.000000000000000000e+00,2.355071387036378194e+00,-9.792253550229787606e+00
0.000000000000000000e+00,2.355071410460413794e+00,-9.792255678127313345e+00
0.000000000000000000e+00,2.355071433920019164e+00,-9.792257809256716072e+00
0.000000000000000000e+00,2.355071457415136127e+00,-9.792259943612744877e+00
0.000000000000000000e+00,2.355071480945707396e+00,-9.792262081190131084e+00
0.000000000000000000e+00,2.355071504511673908e+00,-9.792264221983606021e+00
0.000000000000000000e+00,2.355071528112977930e+00,-9.792266365987890353e+00
0.000000000000000000e+00,2.355071551749561287e+00,-9.792268513197695867e+00
0.000000000000000000e+00,2.355071575421365804e+00,-9.792270663607721914e+00
0.000000000000000000e+00,2.355071599128332416e+00,-9.792272817212671399e+00
0.000000000000000000e+00,2.355071622870403392e+00,-9.792274974007229460e+00
0.000000000000000000e+00,2.355071646647519223e+00,-9.792277133986077686e+00
0.000000000000000000e+00,2.355071670459622624e+00,-9.792279297143885231e+00
0.000000000000000000e+00,2.355071694306653196e+00,-9.792281463475324799e+00
0.000000000000000000e+00,2.355071718188553653e+00,-9.792283632975047780e+00
0.000000000000000000e+00,2.355071742105263599e+00,-9.792285805637702012e+00
0.000000000000000000e+00,2.355071766056725302e+00,-9.792287981457931778e+00
0.000000000000000000e+00,2.355071790042879254e+00,-9.792290160430370705e+00
0.000000000000000000e+00,2.355071814063665059e+00,-9.792292342549643536e+00
0.000000000000000000e+00,2.355071838119025429e+00,-9.792294527810369686e+00
0.000000000000000000e+00,2.355071862208899969e+00,-9.792296716207156138e+00
0.000000000000000000e+00,2.355071886333229170e+00,-9.792298907734611646e+00
0.000000000000000000e+00,2.355071910491953080e+00,-9.792301102387327205e+00
0.000000000000000000e+00,2.355071934685012636e+00,-9.792303300159888479e+00
0.000000000000000000e+00,2.355071958912348773e+00,-9.792305501046875804e+00
0.000000000000000000e+00,2.355071983173900652e+00,-9.792307705042864185e+00
0.000000000000000000e+00,2.355072007469609208e+00,-9.792309912142414419e+00
0.000000000000000000e+00,2.355072031799414489e+00,-9.792312122340081970e+00
0.000000000000000000e+00,2.355072056163255212e+00,-9.792314335630418753e+00
0.000000000000000000e+00,2.355072080561071868e+00,-9.792316552007967800e+00
0.000000000000000000e+00,2.355072104992805393e+00,-9.792318771467252603e+00
0.000000000000000000e+00,2.355072129458394059e+00,-9.792320994002807311e+00
0.000000000000000000e+00,2.355072153957778358e+00,-9.792323219609153639e+00
0.000000000000000000e+00,2.355072178490897006e+00,-9.792325448280795541e+00
0.000000000000000000e+00,2.355072203057690938e+00,-9.792327680012236968e+00
0.000000000000000000e+00,2.355072227658097539e+00,-9.792329914797976542e+00
0.000000000000000000e+00,2.355072252292057300e+00,-9.792332152632498676e+00
0.000000000000000000e+00,2.355072276959509381e+00,-9.792334393510287782e+00
0.000000000000000000e+00,2.355072301660392053e+00,-9.792336637425812285e+00
0.000000000000000000e+00,2.355072326394646254e+00,-9.792338884373545937e+00
0.000000000000000000e+00,2.355072351162209365e+00,-9.792341134347939402e+00
0.000000000000000000e+00,2.355072375963020104e+00,-9.792343387343443339e+00
0.000000000000000000e+00,2.355072400797018517e+00,-9.792345643354504858e+00
0.000000000000000000e+00,2.355072425664142433e+00,-9.792347902375556856e+00
0.000000000000000000e+00,2.355072450564330566e+00,-9.792350164401030455e+00
0.000000000000000000e+00,2.355072475497522078e+00,-9.792352429425344340e+00
0.000000000000000000e+00,2.355072500463654350e+00,-9.792354697442910094e+00
0.000000000000000000e+00,2.355072525462666100e+00,-9.792356968448137522e+00
0.000000000000000000e+00,2.355072550494496930e+00,-9.792359242435427547e+00
0.000000000000000000e+00,2.355072575559083781e+00,-9.792361519399163328e+00
0.000000000000000000e+00,2.355072600656364479e+00,-9.792363799333735130e+00
0.000000000000000000e+00,2.355072625786277740e+00,-9.792366082233517233e+00
0.000000000000000000e+00,2.355072650948761837e+00,-9.792368368092882136e+00
0.000000000000000000e+00,2.355072676143753707e+00,-9.792370656906188131e+00
0.000000000000000000e+00,2.355072701371192956e+00,-9.792372948667791732e+00
0.000000000000000000e+00,2.355072726631015634e+00,-9.792375243372038796e+00
0.000000000000000000e+00,2.355072751923160013e+00,-9.792377541013269848e+00
0.000000000000000000e+00,2.355072777247563476e+00,-9.792379841585823641e+00
0.000000000000000000e+00,2.355072802604162963e+00,-9.792382145084019385e+00
