accel_x (m/s^2),accel_y (m/s^2),accel_z (m/s^2)
9.982806916896794225e-02,-3.023882005226461930e-03,-9.795357813467930441e+00
1.933808273188308002e-01,-7.196489030413998934e-03,-9.788199954461161312e+00
2.704282952238243887e-01,-2.785714766843867059e-04,-9.794282637974101036e+00
3.577314428073432584e-01,5.537002914946576038e-03,-9.791864964090994050e+00
4.076678233964041165e-01,-5.172895173763323445e-03,-9.787472238081910803e+00
4.668455642240315062e-01,7.208465088765866023e-03,-9.800065716202057686e+00
5.171116132902586759e-01,-7.991680513697522320e-05,-9.787936151370782767e+00
5.738495885263108498e-01,-4.748603771614877574e-03,-9.791703738255794320e+00
6.226124275011423181e-01,-1.467538908664022066e-03,-9.796504865447037247e+00
6.527605714228710276e-01,7.781387282409776840e-03,-9.789135334500526753e+00
6.830383064068834553e-01,-6.552681954189319875e-03,-9.786644258747637437e+00
7.120353493661309985e-01,5.343931633979865248e-04,-9.794232178082605600e+00
7.455796028473277159e-01,-6.532339037880453836e-03,-9.785098040222109717e+00
7.725769408463551979e-01,1.652147026793490897e-03,-9.801177364109578960e+00
7.990883230069557586e-01,8.555687079082874551e-05,-9.798845476105867647e+00
8.225478704222848325e-01,7.871888314679876403e-03,-9.792448748032345662e+00
8.326919814086709559e-01,-6.100998793657376636e-03,-9.801133286993081839e+00
8.517652240578558187e-01,-1.143053116442857521e-03,-9.792169206966180539e+00
8.676690617586861887e-01,2.435991668339931339e-03,-9.791111133192279325e+00
8.804484165038579668e-01,2.220105040864884768e-04,-9.798875876604558499e+00
8.937507635978976239e-01,-4.699825299921696993e-04,-9.802709517064979394e+00
8.993178645706404462e-01,-4.012000324448092574e-04,-9.793282934477238300e+00
9.120154323518050443e-01,3.649509166864994044e-03,-9.793276910479043806e+00
9.245848783866514875e-01,9.615648209313490879e-04,-9.799151792580602205e+00
9.286877081907795040e-01,-2.950749517312334803e-03,-9.794649341966469080e+00
9.448407033272089306e-01,-1.615075574643781665e-03,-9.790103352169957418e+00
9.409348789866883722e-01,-4.515805095557345362e-03,-9.801255993292965485e+00
9.488132673351571400e-01,-5.513904803658607572e-03,-9.793728363742571830e+00
9.583701662211624450e-01,5.923665660366835700e-03,-9.788051586681920213e+00
9.607567516226895865e-01,-5.686369494150947737e-03,-9.790581489547374616e+00
9.682720103827229252e-01,-3.197180467073790222e-03,-9.790880993811056143e+00
9.626884217526879839e-01,2.627542967539295716e-03,-9.798128323076092272e+00
9.688721241859098443e-01,3.248037389301797456e-03,-9.794550198130194119e+00
9.775185977448432872e-01,-4.345442889917308822e-03,-9.789880220086711660e+00
9.685063986476951658e-01,-1.017427523747027607e-02,-9.790528548731289860e+00
9.761427025360240872e-01,-4.627090718809326667e-03,-9.789514191796918396e+00
9.745771722029098472e-01,-2.799677083219476430e-04,-9.797299209692766908e+00
9.856451291517916991e-01,-8.551690392846615293e-03,-9.787869447606601270e+00
9.909520532991982211e-01,6.701011342683347183e-04,-9.799250659750491366e+00
9.903925033782688958e-01,4.135820138052360463e-05,-9.792609265577924660e+00
9.889121223229558888e-01,-3.811078779968481590e-03,-9.785961452623299195e+00
9.844542817050782046e-01,-6.735353226757809057e-04,-9.800075154539204192e+00
9.834448016311508889e-01,4.840179097512477269e-03,-9.787134264643629677e+00
9.867460628466473427e-01,-5.183513395804239914e-03,-9.794538073843215287e+00
9.984567933469650214e-01,-2.527370645081939392e-03,-9.793503276723184214e+00
9.954687446352810110e-01,4.661902239074632373e-03,-9.793281306871557845e+00
9.852175540486929339e-01,1.161567724195646141e-02,-9.801510219585756190e+00
9.969458858267692403e-01,-3.877343625140403528e-03,-9.798727066787364492e+00
1.002524989207721484e+00,2.769914111551407491e-03,-9.796924112744493485e+00
9.958199982107083237e-01,-2.317471729923161665e-04,-9.790777331311341314e+00
9.974775498541561536e-01,-2.067808678231059828e-03,-9.792091216631607864e+00
9.959653786161619671e-01,-4.727656423047672633e-03,-9.797167660526703514e+00
9.995975946900079734e-01,5.367303721411054510e-03,-9.790418412999983389e+00
9.955272296137517296e-01,1.153921073447758102e-03,-9.793038234171206113e+00
9.983838510791039900e-01,3.203669162566701988e-03,-9.793247816042978116e+00
1.000029096086163083e+00,3.254376256685808256e-03,-9.796805534373046243e+00
9.931846183682970786e-01,-5.914206368229478136e-03,-9.793336239084352357e+00
9.968520951498744953e-01,-2.154130791595661610e-03,-9.793535142001287497e+00
9.964691994465665337e-01,-3.353017507024824706e-03,-9.801217925124367625e+00
9.972160755942212074e-01,-8.204557736684383110e-03,-9.791470631661498558e+00
9.967221591656777457e-01,4.867724608942832279e-03,-9.789145617533378640e+00
1.007530460388561755e+00,8.529872530771531736e-03,-9.787765657963541699e+00
9.928785137647313519e-01,1.167756208255154443e-02,-9.790784404628334769e+00
9.962250750068043503e-01,-2.850056948558575554e-03,-9.796779086998013142e+00
9.981594513337513908e-01,-1.741647141287585611e-03,-9.786745699560457368e+00
9.946781206656756247e-01,-5.816078378375330767e-03,-9.795431575367986810e+00
9.959354967614153509e-01,5.901148654330034757e-03,-9.787867644039595305e+00
9.927768731538559877e-01,-2.296054582541511729e-04,-9.786410070440831888e+00
9.967242298667960965e-01,8.875751018231564995e-03,-9.790783839726840299e+00
9.993789581446607118e-01,-1.030588162846974264e-02,-9.787840529465936967e+00
1.002074165031869191e+00,-4.166363812930318732e-03,-9.791736596336125587e+00
9.999734562733907373e-01,6.007626809800188997e-03,-9.793646872896296429e+00
1.006015923713418081e+00,2.792771327767068577e-03,-9.794584112125804154e+00
1.000935848184007604e+00,-5.980525216544211806e-03,-9.794662217620309974e+00
1.004356769965991214e+00,1.475669399435392297e-03,-9.794954310645858087e+00
9.883405492866388364e-01,-1.344119056951506835e-04,-9.793193255644661477e+00
9.938970136234634989e-01,2.253744453302296107e-03,-9.786828163694130112e+00
9.987075246019537778e-01,1.544147929117549662e-03,-9.795570684917732862e+00
9.973051600652871329e-01,1.069699626925769455e-02,-9.796596742805853353e+00
1.001853006429073822e+00,-6.434089681239465487e-03,-9.789158496913223928e+00
9.962091293214153653e-01,-5.845764661104485213e-03,-9.810010154834861495e+00
9.980900158191753357e-01,2.927261319674814735e-04,-9.802170771416740536e+00
1.004294358928518704e+00,3.321652425622183789e-03,-9.780123325957100988e+00
1.001348252907191316e+00,8.897668118022280387e-03,-9.795120334251830485e+00
9.993810109837306666e-01,-4.123861379950268663e-03,-9.788927743899122902e+00
9.972499856328316259e-01,3.879160621565576339e-03,-9.792764755866413040e+00
1.000584574324759668e+00,5.605337555268220459e-03,-9.797077191326312828e+00
1.002798710066100440e+00,-1.136659821501737749e-02,-9.792401864346487628e+00
9.969523386083638528e-01,7.150824180432209173e-03,-9.788812063832324384e+00
1.006222763058546299e+00,2.422255955667998190e-03,-9.802516448350182543e+00
1.002040238518216553e+00,1.643775171160256204e-03,-9.790515538390790695e+00
1.000178699723909492e+00,-2.253775620806875053e-03,-9.799014348761952320e+00
9.943705092806983670e-01,-8.745395224337279214e-03,-9.793975571773675171e+00
9.941429434615696170e-01,-1.175678417576968109e-02,-9.789985581032254913e+00
9.981168020929416240e-01,8.789807956028890343e-04,-9.794710287287347938e+00
1.002606723081486795e+00,-1.564294437434666542e-03,-9.794311945811072562e+00
1.004490252443859033e+00,-4.116239748375701631e-04,-9.792753054258255929e+00
9.968530247851128401e-01,-1.441211548818299368e-03,-9.784910631185507413e+00
9.938392582908818218e-01,8.385520867891191679e-03,-9.796951029725677884e+00
1.001598162691255789e+00,1.282927132222640935e-03,-9.793268242674944446e+00
1.004209015535537652e+00,6.042272388001665093e-03,-9.792212638449003137e+00
1.005352477254254806e+00,-2.253956598303888306e-03,-9.792983739367764784e+00
9.957813687163789007e-01,-1.550375250095303295e-04,-9.799412988965647386e+00
1.000267485794164024e+00,-1.563991991807405120e-03,-9.791333106704330547e+00
1.000662877540666296e+00,-4.663936212968028232e-03,-9.791041837344906185e+00
9.951602423163287137e-01,3.611047535399428392e-03,-9.799550116666480903e+00
1.004163676093909885e+00,4.465538422955528906e-04,-9.797965496559298160e+00
1.002027139947071266e+00,1.058378486286823059e-02,-9.794696075038647365e+00
1.001934652379803836e+00,-1.139272449682862762e-03,-9.803319760839373842e+00
9.941139333768029829e-01,-1.847302695438765054e-03,-9.802432189565307041e+00
9.992777836411350645e-01,-1.210698530496107962e-02,-9.795799855801632816e+00
1.000256430811033548e+00,-4.267028964911175233e-03,-9.802390199651920710e+00
1.002544976198669557e+00,-1.531349311996953004e-03,-9.792463920244152575e+00
1.005944903508728006e+00,-7.358057142419685732e-03,-9.785957958830659109e+00
1.005600325375887394e+00,1.165652801285333752e-02,-9.803991991510462967e+00
9.995911873648083423e-01,-2.116455715726734983e-03,-9.799177218839091097e+00
1.003271827426053697e+00,2.811298039815060372e-03,-9.788946416793205429e+00
9.976306941838000153e-01,2.943152023795634828e-03,-9.794524933874789951e+00
1.003094617593894400e+00,3.381362880807163487e-03,-9.788906379081014464e+00
9.937541845173796240e-01,-6.714649293685554660e-03,-9.789414918942185295e+00
1.004775947743234088e+00,-2.830647527376836149e-03,-9.805058133067719339e+00
9.999834812202373913e-01,8.965037617246374158e-03,-9.792054561987841410e+00
1.003753654873269063e+00,3.410831800702116175e-03,-9.795410397219814769e+00
1.001756542901242719e+00,-7.526129374702965162e-03,-9.804514929706604320e+00
9.981552139032231485e-01,6.927113125996174799e-03,-9.783737790878477725e+00
9.878041922644045236e-01,3.279053148807601313e-03,-9.783414771214463457e+00
9.903859414645507231e-01,-2.446334287766892442e-03,-9.786472339800221576e+00
9.996166783016057211e-01,2.848706646655200202e-03,-9.791504769465232627e+00
9.903078582255184781e-01,-6.014180854930831037e-03,-9.802074505820765893e+00
1.002230719925641722e+00,1.675967136532047165e-03,-9.793075668819893664e+00
9.968970892303969933e-01,1.107283537708295303e-02,-9.797692388864117419e+00
9.938787549199419313e-01,7.090724758091772155e-03,-9.791222688558738341e+00
1.007773229805744020e+00,1.761044679647686025e-03,-9.789445518556417980e+00
9.958836539054563008e-01,1.687088615944254692e-04,-9.789736472772787579e+00
9.930907595311595504e-01,5.042038592715765780e-03,-9.792208378619649878e+00
1.005122649584596184e+00,-2.742894623993345771e-03,-9.793938607959187692e+00
9.995659969232729702e-01,1.520020668308572510e-03,-9.788918209155783146e+00
9.967507675481436236e-01,5.215979304365792046e-03,-9.793426464282292798e+00
1.002962822131245213e+00,-3.560433462039650789e-04,-9.794632235297081380e+00
9.976655759865663553e-01,-3.400977972352416156e-04,-9.794841478475159846e+00
1.001659023002361870e+00,-1.921616770939774382e-03,-9.794419573594153050e+00
9.999406423217442885e-01,-4.668384881358338991e-03,-9.787713584218630913e+00
1.001585044789959245e+00,-2.437147599940081306e-03,-9.784326453904537146e+00
1.003070796738825265e+00,-4.427694922827328365e-04,-9.794582040282250546e+00
1.015067569732000408e+00,2.577188666610300168e-03,-9.798960097023700300e+00
9.953441763580980206e-01,-4.714611012547835663e-03,-9.781880194971693143e+00
1.002527862364116062e+00,2.532257630625992829e-03,-9.802376104896943332e+00
1.000474514321395336e+00,-2.063788889689689102e-03,-9.795086652864320342e+00
9.998168239671768598e-01,-2.426387885400225694e-03,-9.803100411357917210e+00
9.994912433553321263e-01,-2.469521102144285780e-03,-9.789691180975022888e+00
1.000009067241513394e+00,4.233465876727498384e-03,-9.795849005466800818e+00
1.011197465404517493e+00,5.942540590235695017e-03,-9.790262447187219053e+00
9.994348359548816951e-01,1.594551768916997172e-03,-9.795597673570496156e+00
1.004618679682548921e+00,4.315086141555291022e-03,-9.804403996557313761e+00
9.982416769289431668e-01,2.739314226951265578e-03,-9.794142113592615217e+00
9.920374383992657252e-01,-6.320174631638903091e-03,-9.792972314856605465e+00
9.992488294327643850e-01,-5.906137406891676274e-03,-9.799245790610578766e+00
1.002161916734966240e+00,-2.209397663718586698e-03,-9.788485681733142485e+00
1.002360352881704442e+00,-3.720910865737691621e-03,-9.799830225192273758e+00
9.973887315408349608e-01,1.742451916892956854e-03,-9.795728234789253364e+00
9.990702931085370109e-01,5.539326991122323768e-03,-9.795735593319779611e+00
1.002223236384726102e+00,7.086715138795406099e-04,-9.794569989990677072e+00
1.000511408207862774e+00,3.502329640378722478e-03,-9.794709844605932858e+00
1.007619598495524516e+00,-4.086455134413417151e-03,-9.803180851509594618e+00
9.959859127487746822e-01,-8.520076929687209286e-04,-9.790201995848292427e+00
9.853901309829052879e-01,5.323039823933660777e-03,-9.792630791143505320e+00
9.883233349075666307e-01,-1.401587968946115979e-03,-9.792445335850722188e+00
1.011101885861482419e+00,-4.387883945124360259e-03,-9.794392047597492379e+00
1.006617307504415137e+00,2.742539619217544862e-03,-9.801334453154176174e+00
9.977111999579029167e-01,1.500503584759071496e-03,-9.788899782910810643e+00
1.004589057200604651e+00,-6.127661502385965686e-03,-9.797063410984870657e+00
9.965472241011137378e-01,-1.580194412560821703e-03,-9.796777589779328110e+00
9.995117609339168041e-01,-9.671592874122336703e-03,-9.793080301693189327e+00
1.000887788069397377e+00,8.294855412801968022e-04,-9.790823496176448870e+00
9.961230352481511563e-01,-5.845377447431385686e-04,-9.797381973525892462e+00
1.009178871069193351e+00,5.677217360722825769e-03,-9.794298687010011051e+00
1.006253452913563384e+00,-4.861523907055123259e-03,-9.789558513563653364e+00
9.967381132522874498e-01,3.954674276714167241e-03,-9.789127628759423771e+00
1.002076984453966535e+00,-6.052289386442222599e-03,-9.809095443474779685e+00
1.005796151921740211e+00,-9.722892576295212195e-04,-9.789487731020784622e+00
1.001421085129169164e+00,4.920484745603852239e-03,-9.786911126658846882e+00
1.001753555165844967e+00,2.403617791468214138e-03,-9.790722226650665050e+00
9.957278943320144737e-01,2.910867482128257598e-03,-9.794606918602729806e+00
1.007370226495577281e+00,-3.378578614979260795e-03,-9.792931667050796207e+00
9.957001556436751999e-01,1.452848735953654949e-02,-9.799734308828544016e+00
9.980205814187470548e-01,1.973003649166141064e-03,-9.792711922451140083e+00
1.006170988648033227e+00,6.593707101509750125e-03,-9.786418663608053237e+00
1.011555724715751170e+00,2.027834125695736865e-03,-9.797084069960677155e+00
1.001053127760314965e+00,5.117555762322447549e-03,-9.789707212586328922e+00
1.014273542822635488e+00,6.194315338136031045e-03,-9.791381553626566259e+00
1.006748008227629887e+00,3.797495549121683578e-03,-9.791853378746154135e+00
1.002060597590002766e+00,9.500790186945274208e-04,-9.786664908066743607e+00
9.954429532061511710e-01,4.918525958298967070e-03,-9.790327972282700131e+00
1.003186034630208612e+00,-4.581656401941743267e-04,-9.791171175856783648e+00
9.955468898099645303e-01,3.271480597496787077e-03,-9.792170653165490180e+00
1.004393860865900878e+00,3.541948953747944828e-03,-9.789200671219131067e+00
1.002437949576849396e+00,5.785906944187492462e-03,-9.790792495138454399e+00
9.921160951299431430e-01,-1.002023925930322539e-03,-9.785725129410538514e+00
9.921379948696827933e-01,-4.662393518026204317e-03,-9.794805757802116375e+00
1.002134763487333657e+00,-5.214219682219285376e-03,-9.788627175356197085e+00
1.000297092751530670e+00,-1.658338633430562863e-03,-9.793914550518014295e+00
1.002014026635775323e+00,-4.725026105777269114e-03,-9.793342767744587007e+00
9.974246786451609337e-01,-5.102499967620895659e-03,-9.792557004775069629e+00
9.981566989571910575e-01,-9.081379221131041096e-03,-9.791045321753605535e+00
1.003675973672317978e+00,-7.173898003267039150e-03,-9.790204802483644997e+00
9.998178354345541585e-01,-7.841817945352600946e-03,-9.789344051407987024e+00
1.000956624611369916e+00,5.653916659506363733e-03,-9.788025809037428360e+00
9.974107654706063641e-01,-4.529012890195345184e-03,-9.795198289056592955e+00
1.003761462719338082e+00,-3.971545266816609542e-03,-9.795383595427271217e+00
9.997917473847132142e-01,5.248784099668434358e-03,-9.792868729352029789e+00
1.004797912878742983e+00,3.198683263180954368e-03,-9.788855403566818936e+00
9.971561779690212290e-01,-1.452348790657674159e-04,-9.791233682237603375e+00
1.001729615893287573e+00,-2.889449269214510157e-03,-9.796978639888211049e+00
1.003078298563363724e+00,-3.691736375550091608e-03,-9.796075690185471530e+00
1.002396030324844256e+00,8.074426026355044014e-03,-9.793273257671197385e+00
9.922205750814303560e-01,-1.797971100235670663e-03,-9.792004190806828490e+00
9.974490156520696704e-01,5.921410927559438327e-03,-9.795470650593230744e+00
1.000751298727185157e+00,-4.286970368438583652e-03,-9.788395156276777698e+00
1.001214394327247570e+00,-4.832198023187913617e-03,-9.788816613860307214e+00
9.926879470564732300e-01,-4.886985465610451176e-03,-9.792918783019818108e+00
9.936974621698693166e-01,9.628734782421866784e-03,-9.788293927907174563e+00
1.000070364754543917e+00,-6.662080078508751495e-03,-9.783494294334944996e+00
9.957429085358279197e-01,1.527070955320196160e-03,-9.796762710415690023e+00
9.976582480197913050e-01,2.420577703925617160e-03,-9.795361812270922286e+00
1.003176514871333636e+00,2.816181994610577992e-03,-9.796116057265500388e+00
1.001175966083385660e+00,1.688645865667115584e-06,-9.794842838745262625e+00
9.912106562774658514e-01,-3.027378950740500056e-03,-9.791575312242287055e+00
9.996584262052756742e-01,7.173091184466547868e-04,-9.796719328750846500e+00
9.947861805186481998e-01,6.170872773389336069e-04,-9.796764074600380567e+00
1.008547901330586027e+00,-2.846814135299232350e-03,-9.794110860006691510e+00
9.973997091923373359e-01,-1.760498061172013949e-03,-9.795911432906279970e+00
9.958533011792992662e-01,-1.755915330816222543e-04,-9.790281852573471610e+00
9.996523626436834009e-01,4.840793677832725198e-03,-9.794937265672658100e+00
1.002171805925615278e+00,-1.022815505488404789e-02,-9.801737628744165320e+00
1.006792881517826199e+00,5.233433036969523805e-03,-9.788687929735850446e+00
9.954288973807712271e-01,-7.402714277716098724e-03,-9.789230527274055405e+00
1.004709792017181469e+00,-1.788804889958216585e-02,-9.801907940103959049e+00
9.982581312379313898e-01,-1.959806170159558453e-03,-9.800501067586941062e+00
9.939080950104539625e-01,6.422801162550497919e-03,-9.794688776174973910e+00
1.003238498948228807e+00,4.742502862328861965e-03,-9.805275708619266339e+00
9.875669412159061578e-01,1.801061778862451598e-03,-9.799130516372986932e+00
1.002438740591885757e+00,6.408173981278874644e-03,-9.794876062527290372e+00
1.001557912370207637e+00,3.195029235797658580e-03,-9.785290220978527742e+00
9.946755776717935982e-01,-6.742896768953264737e-03,-9.793655457917587626e+00
1.002225889966835481e+00,3.888424162197585358e-03,-9.797579047999601443e+00
1.002960368497896493e+00,8.863394495988216994e-04,-9.788682942073570814e+00
1.005328967678588592e+00,-6.322059487033102748e-03,-9.801054752711745977e+00
9.963310777557287112e-01,4.461259902993290789e-03,-9.797105291024330143e+00
1.006191814965970766e+00,-1.503092255806350367e-04,-9.797598386575847584e+00
1.004385022512027437e+00,2.138510410747789230e-03,-9.785612979873897999e+00
1.001067094355546860e+00,-4.584948124147765133e-03,-9.791186501112024487e+00
9.935268046599039504e-01,-7.731212690155274403e-03,-9.789325827387644452e+00
9.955878983819587136e-01,-8.247332042815086126e-03,-9.797287789611319297e+00
9.905130380182436411e-01,-9.502293413021068932e-03,-9.792403125155988874e+00
1.001876738624974950e+00,7.321244969274821402e-04,-9.798423085432370172e+00
1.000538674773295833e+00,2.367848351975889495e-03,-9.789929093903179336e+00
1.006943396133532120e+00,-6.654904856292385637e-03,-9.790769376405162205e+00
9.844904828039547917e-01,-3.695268339452624680e-04,-9.783981138834905167e+00
9.928868619768027592e-01,6.755435056098419051e-03,-9.791261950311877627e+00
9.947338719116723960e-01,-1.803574488457802046e-03,-9.797082773202319572e+00
9.952186943553880116e-01,-5.267706418329955349e-03,-9.792628167833571595e+00
9.968892103330816434e-01,-1.091827287530601487e-02,-9.805099952606488145e+00
1.004397497984743648e+00,-8.609601913233070475e-03,-9.793096837771843255e+00
1.009578347422388056e+00,-3.704665601849268988e-03,-9.800331518694138211e+00
9.946087940511676440e-01,-1.889252245423827213e-03,-9.796654367763503402e+00
9.977126517391670113e-01,-4.814477218301624014e-04,-9.798005374486679742e+00
1.005472034723764674e+00,-4.426798503773816951e-03,-9.792218273904461867e+00
1.006979028289599398e+00,1.664579320409967887e-03,-9.796494793843521620e+00
9.988047179146771759e-01,1.032837510099263514e-02,-9.789091868508130290e+00
9.996762588697536422e-01,-7.544109441668528371e-03,-9.784981841904400568e+00
9.965765143897419298e-01,1.885769039075013871e-03,-9.791243179519714346e+00
9.866818173036034922e-01,4.011818781150278471e-03,-9.795439835936139872e+00
9.977120254356310891e-01,3.098272985477750624e-03,-9.794506798122750268e+00
9.995950935245953017e-01,-5.613694436944993878e-03,-9.793420559191861940e+00
9.963827992355809293e-01,-5.879888268329188511e-03,-9.798558105105390936e+00
1.001052065179341310e+00,2.203531748177909276e-03,-9.796077669167587487e+00
1.005616772132261527e+00,2.825884904952575844e-03,-9.795520217541289654e+00
9.988449251007591734e-01,-1.825984248798196569e-03,-9.789984706956124327e+00
9.920988128890415592e-01,4.306933489598972244e-03,-9.786317243649845565e+00
9.991195915046854337e-01,-1.869003225973560442e-04,-9.795494350079021473e+00
9.958862452088569350e-01,-6.142295636346675747e-03,-9.795674639880392220e+00
1.010194263078710852e+00,2.818060369386626157e-03,-9.798124716692566238e+00
9.985050175408282103e-01,-7.109290426212122333e-04,-9.790689987110667403e+00
9.977162536040442564e-01,2.960963631418407193e-03,-9.798646233236862457e+00
1.002002508547175763e+00,-5.306354682914291845e-04,-9.804825722227361595e+00
1.009039388808055548e+00,6.098728864338228035e-03,-9.802731060238892624e+00
1.014205113463400032e+00,-5.815430711560157706e-04,-9.790631254931914995e+00
1.004160196536276972e+00,-1.000843596011965174e-02,-9.781536939645983253e+00
1.001807400120240388e+00,-4.987866570968185580e-03,-9.793035727513814237e+00
9.949418616771612545e-01,-1.262636873791761147e-04,-9.795696269804393452e+00
1.000599276832658591e+00,5.697663941022806933e-03,-9.789506053323986379e+00
9.909835060895421099e-01,-4.418660939439958586e-03,-9.786007152790537233e+00
9.987171961739191861e-01,-3.234609527787848850e-03,-9.799699355912290244e+00
1.000470768730363114e+00,-4.484269963144949141e-04,-9.784984356722494780e+00
9.983371291122442592e-01,1.224561119297502658e-02,-9.790718402161139977e+00
1.002613268718381967e+00,-2.305893888172585223e-03,-9.788305664240120052e+00
9.917246964655602737e-01,3.732038066422858989e-03,-9.797948530412851298e+00
9.938854483450300092e-01,-8.453616630274893642e-03,-9.796158121367543714e+00
9.958927250972059442e-01,-3.662831636439288063e-03,-9.793043219173876324e+00
1.000972933231018436e+00,-3.244026563108758955e-03,-9.802214515440073939e+00
9.995003230861905230e-01,6.080044127451876904e-03,-9.783061084632930005e+00
1.003581830636623096e+00,2.942922307791669915e-03,-9.796719004933505559e+00
1.003907531400020758e+00,-1.007233807719241274e-03,-9.792804017710814435e+00
9.990155872242050261e-01,-1.660969814988387094e-04,-9.787666165174101707e+00
9.969100887080902806e-01,-2.787715192520927223e-03,-9.799981785405863732e+00
1.001972495522252427e+00,2.348518118643175322e-05,-9.791904595855163151e+00
9.932744278300964513e-01,7.140140125692950087e-04,-9.788178321235895041e+00
1.004064464285709501e+00,1.166938902673565629e-03,-9.788786059350616853e+00
9.953167880717228577e-01,-4.755706079056445587e-03,-9.802888173057356269e+00
9.953269793113032060e-01,7.158605553743892930e-04,-9.797435880421367926e+00
9.979234599633677316e-01,-8.205506838153855780e-04,-9.788081648071884189e+00
1.003014613929171572e+00,4.680242786453708836e-03,-9.791824452516960875e+00
9.985033023960214749e-01,-4.102673866331042751e-03,-9.794778630847151391e+00
1.007342051580524922e+00,5.743971154783363703e-03,-9.796429108109261819e+00
9.976821536139941493e-01,7.608923005823007950e-04,-9.794294988603223118e+00
9.963138561087009348e-01,1.565174239881506491e-03,-9.793618865947733454e+00
9.989180024575631256e-01,3.385249238352001228e-03,-9.786179955390496232e+00
9.963702166490990830e-01,9.962021961304476717e-03,-9.785433377951180844e+00
9.988684638357356871e-01,-1.557051989896440260e-03,-9.793237329396420776e+00
9.984817532352100455e-01,-8.546007253615518773e-03,-9.793732749067563859e+00
9.911831210349941745e-01,-1.349304807267109451e-03,-9.787845023918075427e+00
9.984756845720909046e-01,7.109104842502049666e-04,-9.777652169064447563e+00
1.000436567300611035e+00,1.775062950478168442e-04,-9.780801257892770550e+00
1.009373342625892178e+00,3.888671761855493850e-03,-9.784599701991341547e+00
1.008332868210884081e+00,3.244867863715696858e-03,-9.793243486171009593e+00
1.001528977980899793e+00,-1.132618777007445097e-03,-9.801214864802110682e+00
9.922738404013671243e-01,4.158196447704379933e-03,-9.799914949497487981e+00
9.996433277206246970e-01,4.987121791097381789e-03,-9.789214567014964175e+00
9.965455444489241810e-01,3.038749948814450062e-03,-9.786843196890757213e+00
1.005463797069547693e+00,-3.050348671495408358e-03,-9.798760339971444466e+00
9.935231247654183750e-01,3.789689859816902737e-03,-9.786356447959542848e+00
1.002216950739252432e+00,5.254427027909096791e-03,-9.786317806251421558e+00
1.006221386674787999e+00,1.946866235991052225e-03,-9.788336668558011766e+00
9.904298017355845918e-01,-4.280358173074245640e-03,-9.795155741807493044e+00
1.003528870811382312e+00,4.835421630478725988e-03,-9.792398229536495080e+00
1.000384171490321439e+00,-5.501090670117220541e-03,-9.792470708952189185e+00
1.006083477702989448e+00,-9.489326546063390653e-04,-9.795819227630310877e+00
9.996457692885822865e-01,-3.279308108420712822e-03,-9.794509316735982907e+00
9.909489587537886335e-01,5.055668102049551242e-03,-9.796533483153988087e+00
9.928547602200451516e-01,-8.606810761931081924e-03,-9.796749637629440954e+00
1.005349253830043921e+00,-8.977149612380386223e-03,-9.801366618990433821e+00
9.996884516624775507e-01,-4.603335861324480555e-03,-9.806599008653225980e+00
1.008774714318495747e+00,-5.888722586200789179e-03,-9.796322407418989187e+00
1.003667060702652325e+00,-2.142319869963015423e-03,-9.794626032924897530e+00
1.004350041088990508e+00,-1.835730606735797390e-04,-9.795928108720012517e+00
1.000092999850712205e+00,-4.393951405409345957e-03,-9.793246666477708473e+00
9.942916315799578131e-01,-1.963263302552243923e-03,-9.793054528985726037e+00
9.986089464594832821e-01,-5.858684901740066585e-04,-9.797600526315511260e+00
1.010249109945814405e+00,-5.976608565559995111e-03,-9.795255706177757205e+00
9.978273759656490771e-01,4.559373249946530732e-03,-9.792627155800280647e+00
9.981514965364967074e-01,1.498953486830334209e-03,-9.793240066978317060e+00
9.922645720417918591e-01,-5.197923393578857132e-03,-9.800245110227393752e+00
9.960668967579588973e-01,2.326363847784207548e-03,-9.792314697553806013e+00
9.982531123052342803e-01,-4.742687722470087866e-03,-9.793116428423669362e+00
9.911185717164341380e-01,-2.104322776414150904e-03,-9.789145663273131959e+00
9.974918353807085136e-01,-7.992281062093136140e-04,-9.787403569069617504e+00
1.005076421210007842e+00,1.365464274542077484e-03,-9.799288744466274181e+00
1.004829229731619700e+00,-2.868219278519273593e-03,-9.798462548840683795e+00
9.981615901929605794e-01,2.343252143011062723e-03,-9.787860797945787894e+00
9.931640296759562947e-01,-1.581180506649163334e-02,-9.792064869848761788e+00
9.945474825947241415e-01,-3.078853265225172438e-03,-9.799220387539431698e+00
1.007797431269162214e+00,-6.278416162127480049e-03,-9.801679709245773253e+00
1.000154883034829023e+00,1.585722797538967940e-03,-9.790164904847237892e+00
9.940047516821285400e-01,-3.353920699309048421e-03,-9.791381025129689775e+00
1.004595865449467551e+00,-4.798894966987914167e-04,-9.784805678585300370e+00
9.957511170681490054e-01,-4.826493395032199069e-03,-9.791979558400315753e+00
9.973294884577927899e-01,-4.528898233037684587e-03,-9.792423286625446366e+00
9.988131589076530981e-01,2.597464672337399579e-03,-9.784359886173159992e+00
1.005884694935792689e+00,1.145085729522893597e-03,-9.800200992567562608e+00
1.003781649210511828e+00,-3.807056239531179248e-03,-9.795219599291431933e+00
1.000590975776483038e+00,4.329780365463962999e-03,-9.795916465038194687e+00
9.947260078148197904e-01,3.112322265957547375e-04,-9.790029035209608210e+00
9.969810061418824532e-01,1.219555145772663893e-03,-9.791880839376014833e+00
9.952071360124542521e-01,4.291562026402489204e-03,-9.790889753211017066e+00
9.992163081316227657e-01,5.494751354155224220e-03,-9.798721388355293271e+00
9.933906571514118378e-01,3.887328341843201973e-03,-9.792157847944093163e+00
9.931697109504633580e-01,-2.368495191886151475e-03,-9.796656047011850887e+00
9.988304447080479376e-01,6.208558929323893319e-03,-9.782706633139270025e+00
1.004246385784105966e+00,-1.107740368957468380e-03,-9.790277273100127076e+00
1.004565237966633440e+00,-1.446466555170413965e-03,-9.796290153920503840e+00
1.008490075652698437e+00,-3.692037036057822970e-03,-9.800928657070279826e+00
1.002059068757473304e+00,-5.295509341626324779e-03,-9.791955505449973174e+00
1.004073737669977318e+00,-2.815133590610598667e-03,-9.788691106843016243e+00
1.000151493006879999e+00,-1.321063839372101263e-03,-9.797571932424924412e+00
1.006811361460263621e+00,1.933591968017456687e-03,-9.795305682351251875e+00
1.007554236345055143e+00,-4.730561522759524351e-03,-9.788259138954636285e+00
1.006963240899498846e+00,6.196034106404579161e-03,-9.794973200355379106e+00
1.001269674285036215e+00,3.832980080126106642e-04,-9.794531790860149911e+00
9.970833010693576082e-01,1.707707947003024931e-02,-9.784537481494771427e+00
9.968463813572939758e-01,-3.689531270968593717e-03,-9.797274316686442219e+00
1.004313366776918848e+00,1.377832864000371523e-03,-9.786699226530011231e+00
1.001612804098500842e+00,4.216900724134032240e-03,-9.790639248585124577e+00
9.997543474763749272e-01,-7.645693192377896880e-03,-9.798391998968670080e+00
1.004956226919658357e+00,5.697648297363223924e-03,-9.800719840413171013e+00
1.003555677212883523e+00,3.107504451731209379e-03,-9.787688345759441688e+00
9.943969001947211561e-01,-8.474363877351676066e-03,-9.799005402104427276e+00
1.002856849692311592e+00,-2.872209308813255917e-03,-9.799800069799337265e+00
9.959407898663107384e-01,-1.672078846999760279e-03,-9.794406942603629318e+00
9.981056739396148014e-01,1.369806335559694286e-03,-9.787550728421297919e+00
1.008051765182546911e+00,-4.314051585730251798e-03,-9.779927762021877413e+00
9.989519926985307441e-01,5.614394622389165361e-03,-9.796699857254633770e+00
9.939270036555368781e-01,-6.949142169617826895e-03,-9.796432140272473887e+00
9.966326849187131520e-01,1.802440625217974603e-03,-9.793882687563431944e+00
9.913694233474485973e-01,3.261710155832662876e-03,-9.791928869624495491e+00
1.007305088741475840e+00,1.720112729739771526e-04,-9.794995261148910615e+00
1.003660048311554309e+00,-1.834935118528519243e-03,-9.789876396330539521e+00
1.005151627599164765e+00,6.335324361579212134e-04,-9.793595163242924784e+00
9.930108841889168092e-01,-1.977622625278219453e-03,-9.789271022785884568e+00
9.985974637309601443e-01,5.897978414547149981e-03,-9.785408238059297048e+00
1.006090358538676455e+00,1.362322522142332421e-04,-9.797335757374959542e+00
1.001856081106920593e+00,2.518415396366365487e-03,-9.797563907415494100e+00
1.000240961147202956e+00,-5.187699835585528330e-04,-9.793345490348809079e+00
9.931694550470421268e-01,3.878752810594455775e-03,-9.790184901224717962e+00
1.005816507516840375e+00,2.669364801668554915e-03,-9.791146947649801646e+00
1.002618441896899304e+00,-1.698805005488183755e-03,-9.791952235647869429e+00
9.996120388786466915e-01,2.912545182140345232e-03,-9.794476563570466254e+00
1.001657876788546675e+00,8.594389908839539238e-03,-9.798888793049119528e+00
1.009622551231324827e+00,-8.732954972059125270e-03,-9.785939167133449246e+00
1.009169779108805232e+00,1.814040344449407852e-03,-9.791401293624543811e+00
9.975097181965331128e-01,6.729696441505933664e-03,-9.788741791570146233e+00
1.004158976869842679e+00,-2.930339870979207281e-03,-9.792772380897083906e+00
9.885255979685588779e-01,-5.397087584839975125e-03,-9.797420489604803606e+00
9.984948228558985228e-01,-2.724782677464465414e-03,-9.782469223776960376e+00
9.980550202260912718e-01,7.286019219442851393e-03,-9.793216889745815834e+00
9.968520835956139470e-01,-1.498712468089903561e-03,-9.799664095309138290e+00
9.984640268648572459e-01,-5.175651655831408357e-04,-9.794755116097732639e+00
1.006089614452438719e+00,4.291396954886212041e-03,-9.793644481760450660e+00
9.862693390115774283e-01,8.245345457037922543e-03,-9.798738352977988342e+00
1.000144599533851375e+00,-2.644262723236401411e-03,-9.800717275752999669e+00
9.922471305122044782e-01,4.956302971098161840e-04,-9.789669397937483808e+00
1.004176833107674582e+00,-7.102020441753877089e-03,-9.794867851331325426e+00
9.959516619703993046e-01,-4.820494064250727823e-03,-9.787883334178323125e+00
9.974245837026017858e-01,-4.061902259904394061e-03,-9.801529220205534187e+00
1.011641743116725500e+00,5.706591879362117852e-04,-9.791930530454974857e+00
9.969807323029822310e-01,-1.220607565345403940e-02,-9.798419691707358936e+00
1.006902982116219425e+00,-9.225865284937342144e-04,-9.791268382677367654e+00
1.009216916540973896e+00,-8.534178936388830310e-04,-9.793437207549121837e+00
9.953360935134895060e-01,1.016524899168781085e-03,-9.799609622298140366e+00
1.001677643177029120e+00,5.094183054460924009e-03,-9.790293904814861392e+00
1.002217402551185632e+00,7.892581346509501506e-04,-9.794580853751014615e+00
1.005874148296219239e+00,-9.215687625043816802e-04,-9.793069858633808522e+00
9.968563999278439169e-01,-4.050047175321144083e-03,-9.801400695284206321e+00
1.006368107249799637e+00,-1.422297094463399877e-03,-9.794783960130837741e+00
1.007358063872622722e+00,2.983983355210616511e-03,-9.784336366745360891e+00
1.012653959894756817e+00,-8.760005756465599758e-03,-9.791004174385815162e+00
1.004972659874318053e+00,8.239905898593491776e-03,-9.798508629446143203e+00
1.000005175467946206e+00,7.030673022272445694e-04,-9.787654115799314880e+00
1.005923488741409466e+00,7.949557128719930005e-03,-9.795868064502728956e+00
1.011540186891237258e+00,-8.173620735443476448e-03,-9.797162215220650339e+00
1.005384159496694574e+00,-6.575953476469886816e-03,-9.792835920442081843e+00
9.993591204536296235e-01,-8.424670976246629098e-03,-9.796703147190390482e+00
9.924780910591426419e-01,5.441217038907227195e-03,-9.791148946067474768e+00
9.991006203829660981e-01,-8.167616723068226760e-04,-9.794484332242689106e+00
9.972681777251826141e-01,-7.088372353966495773e-03,-9.794271938144367695e+00
9.961773083793581396e-01,-1.148956643689695231e-02,-9.785066704458920128e+00
1.002935931472674014e+00,4.101255114907326541e-03,-9.794495923080475563e+00
1.002535607068632872e+00,-8.763498647643704065e-03,-9.798245952740447962e+00
9.906977938195752342e-01,-4.471956677157541866e-03,-9.799631150195040163e+00
1.003874466787863851e+00,-1.350786112401420073e-03,-9.795755138560714670e+00
1.007535540893560455e+00,-3.733679134065154975e-03,-9.790060281691831179e+00
9.952595722451330618e-01,5.849061714698314436e-03,-9.789125104285538725e+00
9.884285329831751232e-01,-1.115932778687261234e-02,-9.788217831377030720e+00
9.980753174465770705e-01,-3.319135735048108935e-04,-9.787674975488386053e+00
1.000661364555375243e+00,-1.703411690384298502e-03,-9.784360145466013847e+00
1.001839222602326940e+00,-2.583774811062716607e-03,-9.793416513417708913e+00
1.006263006915760760e+00,-9.855451724679663381e-04,-9.787931876723749980e+00
9.989739947230626971e-01,2.456897016300064150e-03,-9.794488344626957499e+00
9.978656896481848948e-01,-1.748807717872830850e-03,-9.790384596072350121e+00
1.001678322185809211e+00,6.172606337027355863e-04,-9.804607771598609745e+00
1.000727347439762882e+00,-6.079009861857363490e-04,-9.794145792009461005e+00
1.006224914643755408e+00,3.219224772035733217e-03,-9.791615229816828858e+00
9.934079634460715180e-01,1.061456402384719630e-03,-9.789267065272246882e+00
9.975211735194514651e-01,3.295337212363646812e-03,-9.789154711677538145e+00
1.003803081489068827e+00,4.443811095558270266e-03,-9.782111063885363222e+00
9.995650965493994011e-01,1.150064754820100989e-02,-9.791994315945114380e+00
9.974746040220415777e-01,-9.371394521870654234e-03,-9.800508761335363417e+00
9.966718436156448702e-01,5.263204873648422112e-04,-9.787543371686972193e+00
9.982193147305797876e-01,-2.224936691172676008e-05,-9.792799923684832208e+00
9.982495123553166705e-01,3.084137665550242772e-03,-9.801400963623846607e+00
1.004281165474158133e+00,-9.417296464204657699e-03,-9.791090989120416310e+00
1.003432859460408277e+00,7.765935978742729943e-04,-9.792472441796755689e+00
1.004293883357810557e+00,1.599429220120171524e-03,-9.794027348901220620e+00
1.003050430556424732e+00,-1.328429634062556477e-03,-9.798047000145704288e+00
1.003098186820340576e+00,-5.366548387638657783e-03,-9.797979964481438486e+00
9.970038007687713755e-01,1.101318033584974994e-02,-9.789423198778886004e+00
1.000172064289394980e+00,-3.075858256404530311e-03,-9.787870199724874709e+00
9.970996398209617251e-01,-2.220783583116885986e-03,-9.791894718864332603e+00
9.991894546673694144e-01,6.084459084806972604e-03,-9.798731714997201081e+00
1.002314833264034588e+00,-3.995831655880754257e-03,-9.798636785970138874e+00
1.007434967029617656e+00,2.482330206759095128e-03,-9.798361909833360528e+00
1.000144558525180027e+00,7.354394498036104753e-03,-9.794445035786139897e+00
1.012518651587052121e+00,-3.897882475314300480e-04,-9.796115251052810891e+00
9.994882239329863083e-01,1.752132456513492151e-03,-9.794565144495175346e+00
9.941866343990278798e-01,9.238631222556671629e-03,-9.800990966669294480e+00
9.948652371398466476e-01,2.242695211496902735e-03,-9.792594682293573882e+00
9.961913403579832904e-01,5.814152513090042190e-03,-9.795029820090466188e+00
9.989509869594938030e-01,2.660544740708285869e-03,-9.794037434146074972e+00
9.932861386735551967e-01,-3.827196833979076493e-03,-9.791411084888309801e+00
9.977756933372569081e-01,6.223729413825620149e-04,-9.790442304274565188e+00
1.007304056967724071e+00,1.304771194030699636e-03,-9.791834131249929740e+00
9.972208918814683409e-01,-2.231186618630375679e-03,-9.799129669356283046e+00
9.993604896476828703e-01,5.568992346178903291e-03,-9.794000459843681838e+00
9.968259049562552265e-01,-4.318315180205901938e-03,-9.802513751864378122e+00
9.981375593140832114e-01,1.254266578033659757e-03,-9.793847798504174307e+00
9.978690126962569407e-01,-2.047889738482020492e-04,-9.792176782716991212e+00
9.938988407919462365e-01,-4.124615672322011310e-03,-9.788157372168003079e+00
1.004612071739835910e+00,5.069479050952709065e-03,-9.796716835099841703e+00
1.003227216310233594e+00,-1.140673611424919756e-02,-9.792810249562249325e+00
1.004198344575403246e+00,-7.664257864477939594e-03,-9.794803542291242948e+00
9.953648945569001372e-01,-3.366810271289952770e-03,-9.796703779458452388e+00
9.904934033021356443e-01,-3.247877102612059617e-03,-9.794684697976995480e+00
1.004255804411052111e+00,7.475453911637882764e-04,-9.788566033557053458e+00
1.009288764547041417e+00,1.258483007916062595e-02,-9.795725356213385027e+00
9.971697843855155119e-01,5.691301600283891343e-03,-9.789967420604083870e+00
1.002352027885748953e+00,4.254373508913303521e-03,-9.800343215724772961e+00
9.994297374466559747e-01,1.476356908060026760e-03,-9.794463427758721252e+00
1.010919668450813491e+00,9.902462768880345573e-03,-9.791935094222703029e+00
1.003439231902742312e+00,-4.447451808793982143e-03,-9.788173393390867005e+00
1.003639388413505529e+00,-1.087237611677527131e-02,-9.792240900917832391e+00
9.919596094989151513e-01,3.433277929181316294e-03,-9.796389249343087968e+00
9.969925242703802093e-01,1.699012228146677076e-03,-9.795934511543777035e+00
9.946405244023047709e-01,-4.282780875436900843e-03,-9.790899091850475244e+00
9.938393853402429645e-01,4.471760764844404795e-03,-9.795424643472717463e+00
1.001137195618243991e+00,-1.053032039593467320e-02,-9.793719770762537635e+00
9.939149951050681997e-01,-4.697394992136711897e-03,-9.781690202618282370e+00
1.001547409414254686e+00,-4.245767345038137068e-03,-9.797553536672959140e+00
1.003252175250483047e+00,1.180387327270102918e-03,-9.797947103065199670e+00
9.963504384090826616e-01,1.480172106047100656e-04,-9.797435000974177299e+00
1.006930713428245916e+00,-6.941805323746353187e-03,-9.790993652105921541e+00
1.000670798417609531e+00,-1.471736863058975813e-03,-9.793335093836532224e+00
1.008353907758816614e+00,8.107555563077137664e-03,-9.790224663443050090e+00
1.003301009128053423e+00,8.573054171826978084e-03,-9.789723805415455615e+00
1.005390745978756772e+00,-1.045832343546990867e-02,-9.802081759489626123e+00
9.896842082294466936e-01,-5.554600712151465435e-05,-9.791652125161117937e+00
9.999176393306797861e-01,-4.091422566881251950e-03,-9.798383411145447752e+00
1.000109776994994260e+00,-1.626029132246956414e-03,-9.799480356810818193e+00
9.912904018875037249e-01,-2.588924622814174192e-03,-9.798544354552513269e+00
9.974427768172641207e-01,8.195060594770610038e-03,-9.792007634875570687e+00
1.010648076513608107e+00,-4.842472947481576279e-03,-9.804761522177384947e+00
1.005850367472673312e+00,-5.623556057957743680e-03,-9.792283642790541975e+00
1.008855290829521634e+00,2.188228590469659673e-03,-9.800375024640954891e+00
1.000608882629665741e+00,1.249703101407677406e-03,-9.797325486981927511e+00
9.970205922006958321e-01,-5.529816814865432840e-03,-9.783122538093913079e+00
9.976301255044821570e-01,-8.996708233304699740e-05,-9.790222902823813911e+00
1.001971224747708833e+00,3.672294641212869686e-03,-9.792930440117144641e+00
1.000142028511695536e+00,2.255081416560026416e-03,-9.789302460533509276e+00
9.954318575410318060e-01,-1.513332863102156197e-03,-9.789386336638358443e+00
1.005700580566027069e+00,-1.621395084498150098e-03,-9.787120997742178474e+00
9.994617619768755290e-01,-5.298922697199517917e-03,-9.788255216867996822e+00
9.988445195888777661e-01,7.654465156733487353e-03,-9.786555654745292543e+00
9.973647253054902517e-01,4.120640466995750296e-03,-9.799582472919087905e+00
1.005104138080829212e+00,-3.658862533352388001e-03,-9.800338635021613953e+00
1.002752591409643790e+00,4.401055557296045320e-03,-9.792841371796368932e+00
9.905858929549865577e-01,1.276759785112067946e-04,-9.792576264359450278e+00
9.921169213602897274e-01,-1.018027323035878944e-02,-9.797474891291656718e+00
9.980601541561069379e-01,3.729584631826394787e-03,-9.796496799342046202e+00
9.937550082851747124e-01,-1.059545865644431241e-02,-9.800517566384955970e+00
9.993559200796148234e-01,-3.740348226299736439e-03,-9.795362337445737921e+00
1.002437711698406009e+00,3.675744783569599283e-03,-9.791453216823503780e+00
1.002968544110996119e+00,5.828261493600917246e-04,-9.790842973112217962e+00
9.908256984915456700e-01,1.016946954833719378e-02,-9.796696740628540567e+00
9.948647421059315654e-01,-4.637331513031496153e-04,-9.789649730213328738e+00
1.009837687175074272e+00,2.522356934336986156e-03,-9.785885215701435769e+00
1.001280307314968754e+00,2.085251171481386587e-03,-9.797328525541766808e+00
1.000164789904430140e+00,3.202934668375700435e-03,-9.798172793305177208e+00
1.007376467461853498e+00,1.272336059665632024e-03,-9.797314062368020160e+00
9.952670661522033946e-01,-2.651814949998814591e-03,-9.788711966908936191e+00
1.004959833050425466e+00,-4.441511600394477607e-03,-9.794158346808393034e+00
1.007762207978713187e+00,1.023389949426095451e-03,-9.795022786578762464e+00
9.980875554954069528e-01,-8.764243365218192180e-03,-9.789970643688807428e+00
9.921411271328879344e-01,2.653571437507081313e-03,-9.787054866211509108e+00
1.002158375878683838e+00,-2.812177337099290662e-03,-9.787562104835929588e+00
9.985317054960682892e-01,-2.907968652370693415e-04,-9.797427417195729404e+00
9.970912333453745280e-01,1.447984336552657000e-02,-9.789959562610043520e+00
9.973438326675593268e-01,-1.286390113748979436e-02,-9.791509331222805201e+00
9.958921433337062368e-01,3.806355008901779469e-03,-9.796756288736977680e+00
1.002805196680063515e+00,-1.655257327390405406e-03,-9.789919412701708623e+00
9.964115912899662586e-01,4.242192826482366693e-04,-9.786014302261397901e+00
1.000760458176008560e+00,-2.874248015710276216e-03,-9.796878829590070836e+00
1.002251812857305691e+00,-3.775926284169919996e-05,-9.791352803155936257e+00
1.002777901465095489e+00,-2.440285502893756089e-03,-9.787045330264243503e+00
9.963639300301475599e-01,2.838944253241766028e-03,-9.785154941979923748e+00
1.001393672204733187e+00,-2.990179491211670225e-03,-9.795704326507982174e+00
9.997880507355147994e-01,1.226554167260180024e-03,-9.792694607999157697e+00
1.002498086057149962e+00,-5.506614803484960376e-04,-9.793218442003642110e+00
9.995927735328713482e-01,-7.465208551759488012e-05,-9.794961051786851058e+00
1.002382645089755053e+00,-1.166991955566208314e-02,-9.797806134850686632e+00
1.003604891193541349e+00,2.747305715359295037e-03,-9.796951039918175397e+00
9.887358763542309914e-01,1.013237255749354325e-02,-9.797190568312080572e+00
1.001126592390253922e+00,4.525192986476344117e-03,-9.788421369258898608e+00
1.003385832732911709e+00,-1.221206397629582435e-04,-9.790098982499165103e+00
9.986676154443842046e-01,-6.287610876305775240e-03,-9.794243165649447747e+00
1.001019814923233664e+00,-1.998379612017108214e-03,-9.793002979555602394e+00
9.987636631934861953e-01,-6.651472567490209625e-04,-9.795081798143625562e+00
9.958635488363500876e-01,-7.947684050191125560e-03,-9.791783330577205291e+00
1.000231478387454631e+00,3.329487093219164057e-03,-9.790627800109115597e+00
9.982834218692124839e-01,5.238268451965619361e-03,-9.790337740200971695e+00
9.993919515491297423e-01,9.583829362907065816e-03,-9.797716517422919935e+00
1.007526528113227959e+00,7.504172643740901656e-03,-9.792012633917268616e+00
1.000173306795996364e+00,-2.651377624943441081e-03,-9.796243258592781444e+00
1.006529807182988678e+00,-9.259105903745537720e-04,-9.798230701619578653e+00
9.971675877195237403e-01,-2.919215317066221112e-03,-9.792601145934030527e+00
1.004646148369715108e+00,-8.959324203914171419e-03,-9.791973893507883275e+00
1.002450672881408211e+00,-3.672137766663514588e-03,-9.789490384736113882e+00
1.007745268343307687e+00,3.479447440023962241e-03,-9.789212763128812611e+00
1.005601759351842261e+00,-7.239773384119533618e-03,-9.792456332012939413e+00
9.912730602799075807e-01,6.253012178534336253e-03,-9.793713206476365229e+00
9.972823915884598822e-01,-1.333894231657069274e-02,-9.791340973306198237e+00
1.001535510631468728e+00,1.372985063587980436e-04,-9.792329401677246636e+00
1.002026428794257074e+00,7.418045996680913863e-03,-9.796940866402300330e+00
1.002690434281093612e+00,2.375905212578994109e-03,-9.794007770979458627e+00
1.003549489314794707e+00,9.903949587473765380e-04,-9.785782563150988267e+00
1.005196562736652588e+00,-5.617268624614177135e-03,-9.800063612672136770e+00
9.961213561710923203e-01,-4.422361926792642284e-03,-9.799708664704590788e+00
9.989272441273406855e-01,-1.660039802084979470e-03,-9.790216549666203250e+00
1.005302181656679616e+00,6.633194319517819564e-03,-9.788616555361215887e+00
1.001348844741658750e+00,4.660151601614506006e-03,-9.798016763326964806e+00
1.001079051766053274e+00,6.410841873426435800e-03,-9.799097724707177548e+00
1.000286150745624436e+00,1.034063989060834314e-03,-9.788354573211199394e+00
1.000495901162285151e+00,5.298943433020337872e-03,-9.799316234524143354e+00
9.991732615429049780e-01,-3.840387684659976944e-03,-9.794058459107656489e+00
1.005198087591409717e+00,2.297711183649336648e-03,-9.799649346082393464e+00
9.983025536236735942e-01,-3.223265566817607938e-03,-9.786509045934646878e+00
1.003488919092111908e+00,3.985666217375804544e-03,-9.799730718879835933e+00
9.993649108638034129e-01,4.217978623003968558e-03,-9.794382976977203725e+00
9.983829317253721802e-01,6.632053089703556382e-04,-9.793376621086828493e+00
1.003132272239604550e+00,-4.267629623665942021e-03,-9.787100871493422005e+00
9.938809514035522596e-01,1.424379553515397502e-03,-9.796971067229701902e+00
9.936451833011104018e-01,-2.194137946458565684e-03,-9.787976045187489760e+00
1.006184689555776668e+00,-5.175391192610422943e-03,-9.795126598460401013e+00
1.001503445174415807e+00,-3.249079692083287150e-03,-9.801537742418016563e+00
9.983706887831625965e-01,-3.064718491998040095e-03,-9.792986355318101133e+00
9.965108464605898497e-01,-3.459072867251750116e-03,-9.792019504764486015e+00
9.913446976053131854e-01,3.811766820467079545e-05,-9.790834955446134913e+00
1.002944588420571215e+00,6.222566577802758452e-03,-9.790954915890148769e+00
1.004851111739700320e+00,6.314695685000973856e-03,-9.796746626376402034e+00
1.000099823706251501e+00,2.174180291168130571e-04,-9.800864664099460555e+00
9.980206827814180892e-01,1.067563150235816515e-02,-9.787113221519769368e+00
9.937022742612314774e-01,3.237174799101408956e-03,-9.786923370608839434e+00
9.981475624612007325e-01,3.988938404430880311e-03,-9.797313421954813251e+00
1.002988297776740145e+00,2.418894315681337399e-03,-9.785812614770048157e+00
9.942728066419546096e-01,-2.020178911618860772e-03,-9.783168839890661772e+00
9.952188341846320840e-01,-4.630680756208975513e-03,-9.793532299615954173e+00
9.967425849022901740e-01,-5.920051683605219266e-03,-9.791119296562568408e+00
1.003718346335409795e+00,-3.307696629955734439e-03,-9.794995317110574362e+00
1.006645259467612297e+00,-8.103650377466575794e-03,-9.792392469436535407e+00
9.929629591470706673e-01,5.196239126083276698e-03,-9.798800775801039364e+00
9.967626562450917493e-01,-8.073747939604103765e-03,-9.787222704065360546e+00
1.007011693639761507e+00,-3.306223689749040930e-03,-9.789915037850677848e+00
9.993519873244830487e-01,-7.015077301833093013e-06,-9.796783431266405273e+00
9.991179490230787108e-01,-7.800015049343430804e-03,-9.794063749405864883e+00
1.005351063851936066e+00,1.121052421289278405e-04,-9.785253051178793626e+00
1.002212315271394205e+00,-1.679089144766142145e-03,-9.788312819603339321e+00
1.010765565974161229e+00,9.385680430861284996e-04,-9.795802968049379444e+00
1.001272989070888242e+00,6.625737053217835119e-03,-9.794145591560429409e+00
1.004572900076202480e+00,5.849179172565149160e-03,-9.795280054481946053e+00
9.967987806031272102e-01,5.594542350246802138e-03,-9.800955809224264570e+00
9.978224858606492553e-01,2.953341392560794153e-03,-9.798424589008227770e+00
9.999861495546815693e-01,2.754791341008407200e-03,-9.797207033636331275e+00
1.003995282806765532e+00,4.400018390570960454e-03,-9.790344850578128089e+00
9.984105274215394621e-01,-5.596033985220267605e-03,-9.787564907225078770e+00
9.956677038410275404e-01,9.166580881674699088e-03,-9.782435188418086014e+00
1.000834574849968961e+00,1.672530350844407977e-03,-9.802023964829327696e+00
1.004860938171764806e+00,-1.004755549642094570e-02,-9.795548712087050802e+00
9.887061155803156254e-01,1.509632717563525860e-03,-9.782335005859302157e+00
1.007736173949633107e+00,-3.658909062187924634e-03,-9.794237154907104781e+00
9.959323973941349717e-01,-1.005746405036912392e-04,-9.798024082686445979e+00
1.012248292571690245e+00,-7.500487386547400985e-03,-9.791900861006663348e+00
9.953893778742270992e-01,6.671277530619319947e-03,-9.792344455567606687e+00
1.006521620659033056e+00,1.539940843854838712e-03,-9.798802709109990516e+00
9.930642837111636201e-01,-4.714695040162277667e-03,-9.788232542005300019e+00
9.994430419273756527e-01,-2.790461222479305968e-03,-9.793384417997275548e+00
9.994737748279467482e-01,-3.130062389750957498e-03,-9.791638823960076010e+00
9.931138736080603602e-01,3.027171923199073120e-03,-9.787081263695835531e+00
1.004452782409665179e+00,-7.994653307632378341e-04,-9.791410954754049101e+00
9.977637061647288697e-01,-9.411260300279289566e-04,-9.798139891480413866e+00
1.002585331360763554e+00,-1.006411319947393690e-02,-9.793413633903769622e+00
9.983490445829046323e-01,-7.007459543449020764e-03,-9.805787060527020316e+00
1.003776441846670142e+00,-1.684260674480626222e-03,-9.793089013767858120e+00
1.000101735515101620e+00,2.018689436193070973e-03,-9.794293160259694986e+00
9.970257998100791053e-01,-7.720915556813120854e-03,-9.801669597846098370e+00
1.002919705287771190e+00,3.816383075657368840e-04,-9.792300765330713475e+00
9.987717472939730001e-01,-3.915684596136101425e-03,-9.792982989162936747e+00
9.984573225570519961e-01,-4.148486111004495366e-03,-9.791357727974503433e+00
1.003993127513649775e+00,1.783138161651567216e-03,-9.785005260202636279e+00
9.978107839951684266e-01,-4.085681681779572763e-03,-9.804045137138501786e+00
1.007165825973328488e+00,-3.522803800815733737e-03,-9.802387411233764780e+00
9.980908694999165442e-01,-8.053218679366969156e-05,-9.795941201747631055e+00
9.989703052551845985e-01,-8.683424555757400520e-03,-9.799687406294069092e+00
9.995610104076784186e-01,-8.408034308873567342e-03,-9.786484791404099326e+00
9.993761341428583078e-01,1.915268268135721227e-03,-9.791743693012158190e+00
1.003758123364982158e+00,-6.707894431907350649e-04,-9.800753008030804736e+00
9.933034088469386846e-01,-2.268684358694318258e-04,-9.791924530662292625e+00
9.972873307175487145e-01,-4.185315234353685979e-03,-9.791853347984456946e+00
9.992016879611301805e-01,3.711507052829351311e-03,-9.795390849466230065e+00
1.003839547470480653e+00,-2.038225978447325611e-03,-9.793702009027910549e+00
1.002899978161360561e+00,2.003778180027795085e-03,-9.797991317955581536e+00
1.005957002577787085e+00,-3.916036802966138368e-03,-9.795807915415354117e+00
1.006762520521746085e+00,1.012503037000609535e-02,-9.796463386582026089e+00
9.994197812578884399e-01,-7.674371606387416986e-03,-9.792945481157703469e+00
9.977803588697728987e-01,-6.528218455587671450e-03,-9.788358036983467514e+00
9.923323420232982306e-01,-2.043159997251696273e-03,-9.795484076468179424e+00
1.000404158662498100e+00,3.187558138180488377e-03,-9.789832771310294390e+00
1.001753956928011391e+00,-5.296646947861707866e-03,-9.786195272633847253e+00
1.001398115703583169e+00,5.415637758041102166e-03,-9.794227227592209317e+00
9.979741793514731452e-01,1.697675751508060261e-03,-9.789411467030010527e+00
1.002194070888912103e+00,4.886466348464936493e-03,-9.789076218725018208e+00
1.003125460210946507e+00,-4.838522035292404898e-03,-9.797173805629531884e+00
1.002896317898649192e+00,4.465459492284282531e-03,-9.789900957822625926e+00
1.006051470441022389e+00,8.987820175134034759e-04,-9.791195685875038635e+00
1.000551454034297238e+00,3.789433625243514335e-04,-9.800274059021091944e+00
9.912835165005570159e-01,-2.735622706875233748e-03,-9.795536194507189265e+00
1.001067918821826330e+00,-8.396730120808499741e-04,-9.795506140570438447e+00
1.003970771703794229e+00,-6.210250912104185207e-03,-9.796026344459761503e+00
9.982065306522663883e-01,6.170132006511020936e-03,-9.799916224179998636e+00
9.967690859618242305e-01,6.083503447238545114e-04,-9.795963486266078490e+00
1.000891109106151200e+00,-5.125379181625137025e-03,-9.795393142984686108e+00
9.956733384884448590e-01,6.001048251361271353e-03,-9.783842836725250791e+00
9.948491926726706902e-01,2.381164961596285087e-03,-9.791694318056901380e+00
9.997459327180528987e-01,-4.735263816259399345e-04,-9.792031325422710708e+00
9.955916492917158411e-01,-6.210797303197799872e-03,-9.793342299768628578e+00
1.008219695078634182e+00,7.871433537970709809e-04,-9.779145370583375296e+00
9.892314901230416790e-01,-2.004767468002717056e-03,-9.797580863877035640e+00
1.005402440802337871e+00,-8.328804234728374306e-03,-9.793645912258490682e+00
9.999807852618388671e-01,3.512551654650891697e-03,-9.795552719911269079e+00
9.892732136148009170e-01,5.210513462801730916e-03,-9.784494439620011974e+00
9.991760766965441798e-01,-6.683650164669514317e-03,-9.798344279510764920e+00
9.961222419862664212e-01,1.806861887319503781e-03,-9.798952219917110185e+00
1.000305445944574601e+00,1.423174711645037744e-05,-9.796195365987760084e+00
1.008091188092399948e+00,-6.737993848795932258e-03,-9.792610212788247281e+00
9.983406397353595807e-01,6.338802601420267038e-05,-9.797473408712908949e+00
1.002152298628127269e+00,-7.163507000213146072e-04,-9.795518396413717355e+00
1.008623529469527824e+00,-2.176819512161873652e-03,-9.791250481645509041e+00
9.953290352962196330e-01,2.111669270107640294e-03,-9.789525846027411049e+00
9.945333932333184634e-01,-5.988544029802685218e-05,-9.798911156571008974e+00
9.954266467831075493e-01,-2.383612708786415641e-03,-9.803237177724332341e+00
9.961964324145602401e-01,-6.628168244872979786e-03,-9.790933543741694223e+00
1.006926374979619121e+00,-7.741719634032816037e-03,-9.786168852107959282e+00
9.929379077122798547e-01,6.552999674826830157e-03,-9.798103419550088233e+00
9.933228830380353980e-01,-1.281506663088453467e-03,-9.798573314494781528e+00
9.951400219641479694e-01,-5.609564675733360803e-03,-9.791472501477640478e+00
1.003775612098667613e+00,7.940834198145053230e-03,-9.794237461810070045e+00
1.001299843737813555e+00,5.339642099041862731e-03,-9.783698969804850876e+00
1.011194877985132301e+00,2.241689436911711072e-03,-9.793514813608489078e+00
1.000628016599885983e+00,-5.708434134159949287e-04,-9.791885798623486181e+00
1.002512432786360153e+00,-2.050594048539896262e-03,-9.794519687620345749e+00
9.946973106787401209e-01,-2.790969646988134857e-03,-9.785494612310662532e+00
9.951065162661917318e-01,4.785625016751504646e-03,-9.792117237265124174e+00
1.005915008590954063e+00,-7.509730340087067066e-03,-9.798339294436008373e+00
9.999001950908912306e-01,-4.225791890399070022e-03,-9.785126398868666087e+00
1.005473418303310496e+00,2.598694166304786266e-03,-9.793010605792346723e+00
1.002495645462163631e+00,-1.934471565691815546e-03,-9.798040880229329730e+00
1.001638545865614072e+00,4.965212593942682027e-05,-9.796929412862143138e+00
1.003142712924084856e+00,2.340249466626567656e-03,-9.794653110395728390e+00
9.969713034893313841e-01,-2.534187339127606884e-03,-9.790007581697038219e+00
9.941238779125556313e-01,2.354753667320715407e-03,-9.797476420371344474e+00
9.970742173098428029e-01,-6.705653531112096798e-04,-9.792835638797107833e+00
9.982938133553882487e-01,-4.761044307252650055e-04,-9.791015619652862156e+00
1.000831169320354874e+00,3.325925253521120305e-03,-9.792856108724851794e+00
9.957881566990200994e-01,-2.240711025790155866e-03,-9.789967309866385747e+00
1.001697517734317477e+00,-5.447824638594825873e-03,-9.800710145130386408e+00
9.958871935523241348e-01,-8.950911667102014885e-03,-9.794186552124953593e+00
9.999682544475275714e-01,1.982941561719894774e-03,-9.797148429358257360e+00
1.002748236213895305e+00,8.594423931430993221e-04,-9.803274492509080673e+00
9.933831676453386272e-01,6.010053416527624467e-03,-9.788456909502338377e+00
1.001640073861122859e+00,-3.622943796436463651e-03,-9.787945793437149433e+00
9.917226744480329703e-01,-2.007621615914387432e-03,-9.793594857407811105e+00
9.985464848673138993e-01,4.437633091314469730e-03,-9.788979080326303261e+00
1.001429570376745959e+00,-3.904360255859199227e-03,-9.796561023155236470e+00
1.007428694601352204e+00,2.556926074314323522e-03,-9.789823351626957049e+00
9.971151668524164124e-01,-5.877700748351618112e-03,-9.795609503774748816e+00
9.992189932326271951e-01,6.282221998783048614e-03,-9.801680469004013574e+00
9.976696093167557455e-01,-1.060395042849538155e-03,-9.796848521116588770e+00
9.940013275350856325e-01,-6.897914918655344285e-03,-9.786248713157844392e+00
1.003012260237327036e+00,-3.164308183457029740e-05,-9.789910004162793555e+00
1.001125465585771757e+00,-5.120941203761691062e-03,-9.789771928565409453e+00
1.005643718672136311e+00,2.956981805065499527e-03,-9.795042235877003733e+00
9.963065495609544353e-01,-4.593086599979633380e-03,-9.792730064028695836e+00
9.957525912323976769e-01,-2.389998608919093048e-03,-9.790831946575510258e+00
1.005765594328446477e+00,-3.548160385009643814e-03,-9.791113839058288804e+00
1.000851014016072238e+00,7.917363292489329810e-03,-9.794356047749937844e+00
9.956017392983690373e-01,3.376731778831072988e-03,-9.789210380353196683e+00
9.868319382463563993e-01,-7.927623287892326259e-03,-9.789209854454641757e+00
1.007338509024082729e+00,1.258674924922313122e-02,-9.794154201984925479e+00
1.004217646601351266e+00,4.019199896196652688e-03,-9.794644356069467150e+00
1.003144371308533289e+00,-3.993969285706849663e-03,-9.794389987089205718e+00
1.006218868438377489e+00,-5.277384697101854955e-03,-9.795613273188569892e+00
1.000287463370228336e+00,1.231619767395659157e-03,-9.795464165281980939e+00
1.002313626653764445e+00,-1.043824815952172635e-03,-9.788644393175285785e+00
9.928018122818136337e-01,-7.906683263899014474e-04,-9.789549393871601168e+00
1.001957060831691448e+00,2.083200685140748284e-03,-9.798152091546686648e+00
1.009760568033037265e+00,3.342552512117007157e-03,-9.793483603716198971e+00
9.980473365415573062e-01,5.195610963171081766e-03,-9.800643307747213484e+00
1.007822375121777636e+00,-3.301730063679400411e-03,-9.800496069113540543e+00
9.872464646805850785e-01,-2.459226369011508536e-03,-9.798816205809300683e+00
1.000980827715656885e+00,3.905077078971705765e-03,-9.797718705441711862e+00
1.007161241394155304e+00,-1.044430444864523702e-02,-9.790141114148484647e+00
9.927763175826803677e-01,-6.106318772832083387e-03,-9.795122904560043864e+00
1.005503797929612197e+00,1.564204602685083292e-03,-9.787576425871829855e+00
9.919775295395329984e-01,2.091034583785993800e-06,-9.796871927649677403e+00
1.000929796224402812e+00,2.103929139165495142e-03,-9.797252488913173352e+00
9.972306379362693152e-01,2.129673642081851125e-03,-9.791701831796338240e+00
9.978430364300661104e-01,-4.048818883902598718e-03,-9.790337870355884320e+00
1.000030373520960802e+00,-3.954005677499852246e-03,-9.796262358775109647e+00
1.004228490139952745e+00,-3.157344068197612350e-03,-9.790431764213948895e+00
9.939128499326840283e-01,1.586033988202156754e-03,-9.796850077704288395e+00
9.993420647262222234e-01,-6.108073471758725288e-03,-9.800626660942510782e+00
9.907756880448818082e-01,1.089954432564285876e-02,-9.791754988911522517e+00
1.000810558056894228e+00,-5.288147949339465533e-03,-9.798756000455190573e+00
9.908161819534011538e-01,-4.744621355868775502e-03,-9.789075423300040768e+00
1.003466460643453573e+00,2.490533911844677959e-03,-9.789678919002266611e+00
9.999312667439681501e-01,5.892711812838441650e-03,-9.796889521563059589e+00
9.999829579340809849e-01,1.469216295666299788e-03,-9.800135254530470519e+00
1.004426123559316153e+00,7.006597232221943323e-04,-9.784735770297745105e+00
1.000023421229041309e+00,-4.379192720675016692e-03,-9.798743552986408645e+00
1.005788849069241264e+00,1.152437926453537057e-02,-9.791893623148981263e+00
1.004882200421508553e+00,-5.021772339893496896e-03,-9.791668965177063200e+00
1.000716329186837728e+00,4.061807681006459302e-03,-9.791114581370029768e+00
9.984653830792630247e-01,-4.149087554784650599e-03,-9.794529276708585641e+00
9.948702604203719657e-01,-6.676877775540964247e-03,-9.791347046140849386e+00
1.004383963138374636e+00,-7.382574046680813549e-04,-9.791579245175579871e+00
9.997096476473688043e-01,-4.413952714404013877e-03,-9.789788707913995580e+00
9.908461404349488966e-01,4.317294416539898226e-03,-9.791766442481600663e+00
9.972512026621991321e-01,-4.393723919178613851e-04,-9.789168625090400866e+00
9.960301351940913372e-01,4.188531086735116163e-03,-9.799774473006786835e+00
9.951455580015150515e-01,5.164184664916977863e-03,-9.786207982192175692e+00
9.904247713265103004e-01,-1.203502895186105322e-02,-9.792339669501245680e+00
1.006018086295736857e+00,-2.356210893378900446e-03,-9.788352114086283251e+00
9.964197552401483637e-01,9.032610006723286802e-03,-9.786695175671857427e+00
1.001282797802991231e+00,-3.547644018633920983e-04,-9.796142850081452025e+00
1.005256275165709701e+00,-6.233549794980614879e-03,-9.798771935621992668e+00
1.000845893647442919e+00,2.407530609133066209e-03,-9.794827259329164093e+00
1.002403173685619597e+00,-1.846068528745072653e-03,-9.788872214227493984e+00
1.001584034773579601e+00,-2.002434497614632210e-04,-9.797415346591026974e+00
1.000363164262362714e+00,6.030000936131094287e-03,-9.791271352181174947e+00
9.954616204217164865e-01,-1.816042652796258806e-03,-9.795409913821361059e+00
9.933647302687651504e-01,-2.354348983041281221e-03,-9.794181133169347575e+00
1.002545486106472206e+00,-7.666202157520355699e-03,-9.799581717909957135e+00
1.001451109074112944e+00,-3.202065162995355527e-03,-9.803247558646093651e+00
1.003741308036411040e+00,-2.515926622648954458e-03,-9.789666464376983512e+00
1.012923015228669676e+00,-3.575662174277171972e-03,-9.804089938722251318e+00
1.001033804913468162e+00,8.850848882874162368e-03,-9.796068174512056359e+00
9.937979998201161846e-01,-8.611566130047029755e-03,-9.800572479533489201e+00
1.008143681416188597e+00,-1.573501378275569658e-03,-9.796490191513726131e+00
1.001214226180605404e+00,-3.641685510120004805e-03,-9.792992729721929024e+00
9.990730473453973692e-01,-7.762568779678544889e-03,-9.796494184887128753e+00
9.991662919616364213e-01,-3.671369634523862554e-03,-9.791649376582920894e+00
9.972002733382250295e-01,1.819274260799315151e-03,-9.793563541493274016e+00
9.917515701235086745e-01,3.472256672591420013e-03,-9.794937244494194672e+00
1.000257184148975131e+00,1.607053571527382058e-03,-9.790589987880984779e+00
9.993324205229641155e-01,9.249151783327400067e-03,-9.794545819984971757e+00
1.006234455524164018e+00,3.549431449719814800e-03,-9.789102487519661722e+00
1.002081545424432063e+00,-9.704501848299032507e-03,-9.795003685292137163e+00
1.002060677451227733e+00,5.685495766456216682e-03,-9.789987755217838483e+00
1.001001466791799688e+00,-8.684223726619977324e-03,-9.785949778660087972e+00
1.002698001898112867e+00,2.016525501391628651e-03,-9.800003952997853318e+00
9.992651044457104836e-01,-5.090166109902411959e-03,-9.787645688540363764e+00
1.009445693185709869e+00,-3.071450844175002345e-03,-9.793198748076685334e+00
1.000768100313261799e+00,3.998831350614323599e-03,-9.788951526836576988e+00
9.918256049427491838e-01,-2.862695501150229558e-03,-9.790963767963548392e+00
1.006499944107704492e+00,5.106835164294297458e-03,-9.785725414455187732e+00
1.007262373697124902e+00,-1.079657471298055282e-02,-9.788890866056974005e+00
1.007284291798103304e+00,2.252538483535394126e-03,-9.792423805936493864e+00
9.986035348037592962e-01,-1.199761490799359414e-04,-9.789778826326449135e+00
9.965007291482932406e-01,7.095902075257926912e-03,-9.788747554895586234e+00
1.003516209944581794e+00,-6.468060226930655993e-03,-9.792838622959475714e+00
1.000455183304053808e+00,1.704371797931612809e-03,-9.799574213392435951e+00
1.000381540292760274e+00,2.954452282180365652e-03,-9.794306128321133897e+00
1.001868980454574176e+00,6.145554535898212212e-05,-9.796103085346862471e+00
9.883477849599782150e-01,7.934774965757628289e-04,-9.793969932238800524e+00
1.003324361194854131e+00,-4.067862853695973285e-04,-9.795013922587544997e+00
1.003284701984988203e+00,7.751102972222098132e-04,-9.791975430928911095e+00
9.947999182105412563e-01,-6.624628799929842445e-04,-9.786506736580928845e+00
1.006130054236086480e+00,-3.553433190143272594e-03,-9.791309732188619108e+00
9.961456681163530780e-01,5.738082868988660795e-03,-9.790065044138138717e+00
1.007164133328908973e+00,-2.463860802064609182e-03,-9.796569928691940987e+00
1.001558201409977089e+00,1.730360777802623755e-03,-9.792668020916256211e+00
9.984070850617953186e-01,-5.086117123985705625e-03,-9.801824073392815251e+00
1.001651433604163977e+00,-1.945936371816890751e-03,-9.791628952125204677e+00
1.004299817657465788e+00,1.563890704146837264e-03,-9.786074400092738657e+00
1.010628041581287828e+00,2.064493633334014717e-03,-9.781148389788254960e+00
1.009465077673700861e+00,-3.032533873598745443e-03,-9.786754061569459040e+00
1.004288085681005471e+00,3.981177887444127973e-04,-9.788851869172040310e+00
9.931225059382688958e-01,5.332081547146536211e-03,-9.791278054529783503e+00
1.001183701872482068e+00,-4.304122406884497085e-03,-9.795406482291467043e+00
9.922630631814738367e-01,-4.075109445782567480e-03,-9.798940751845378827e+00
1.002816124799045028e+00,4.441654653384995155e-03,-9.796278703143634914e+00
1.005950959847123016e+00,7.443690583000868270e-03,-9.794264656912176292e+00
1.001497386045732574e+00,3.179471664071441619e-03,-9.788523493201969572e+00
1.004437881800905652e+00,-6.483634868694587022e-03,-9.806492926894394557e+00
1.001976880209432430e+00,3.875255221845124061e-03,-9.794551194525380922e+00
9.967142662396030195e-01,9.502943686757625184e-04,-9.793078734262689267e+00
9.933503876354157214e-01,-5.504898426686056535e-03,-9.801628551718879478e+00
9.865407851968774899e-01,7.597032713932763692e-03,-9.786619057963807933e+00
1.008411463458411816e+00,1.911096974402663089e-03,-9.792383506754910982e+00
1.001025822802806386e+00,-5.349531931451669518e-03,-9.800409592053872743e+00
1.000991232771279105e+00,-5.287477872353644678e-03,-9.795529134812472449e+00
9.988563693835803559e-01,1.722039085079001431e-03,-9.799093284287405226e+00
1.005572659944334424e+00,1.324584401778516451e-03,-9.790100383521069816e+00
1.001852268702110971e+00,1.578689117884248243e-03,-9.789575225254674606e+00
1.000526796915590877e+00,-2.899017812083992326e-03,-9.794460820581157634e+00
1.007092592589246216e+00,-6.881413121528427365e-03,-9.788221918552213907e+00
9.928165163319664366e-01,-3.537788568134521243e-03,-9.803651184289035925e+00
9.886092679741730338e-01,9.758659485049886798e-03,-9.792090639423820519e+00
9.961001162922749064e-01,-2.679609383494925817e-03,-9.790701189767430535e+00
9.970305617113098817e-01,-1.253719551926216723e-02,-9.791941124933210006e+00
1.002368228854418897e+00,-1.264261100170555041e-02,-9.786735580169651172e+00
1.006594671181918033e+00,6.517187992900075333e-03,-9.796711482239773616e+00
9.986444878623461641e-01,2.271812192001467466e-03,-9.798213036364980866e+00
9.995114845387079727e-01,-4.458619103624075070e-03,-9.790789896233228262e+00
1.005193377424961287e+00,3.745766639409048044e-04,-9.797080366614887126e+00
1.000019818221375534e+00,-8.852115601699355948e-03,-9.790641298210795540e+00
1.007123925485373883e+00,1.762421978567857298e-03,-9.782183163651204438e+00
1.001545920778394771e+00,9.606946313790751084e-04,-9.797326332003148508e+00
1.009176729508926673e+00,-1.990186636862580592e-03,-9.788659748457307685e+00
1.000140260223457478e+00,1.985592993604916442e-04,-9.785273555475933804e+00
1.000379056899879160e+00,-3.805116714416255201e-03,-9.794950627908596275e+00
1.002267216628436763e+00,3.908645201018867872e-03,-9.795676507706129854e+00
1.004564353385566822e+00,1.240465342586658751e-03,-9.793049182314009116e+00
9.931241293919851332e-01,-3.770784864217888448e-04,-9.791505963598007511e+00
1.004213107523540982e+00,-1.291221354627484445e-03,-9.795814283056131444e+00
1.004646879051642960e+00,1.071568797611630215e-02,-9.792944364642430344e+00
9.987641803317630629e-01,6.650842939248470575e-04,-9.794460361283819694e+00
1.008014649817926323e+00,-7.633204090229215796e-03,-9.794547986315956578e+00
1.000244743281055726e+00,8.664712191853708679e-04,-9.794423766886081850e+00
1.004285700978709173e+00,-2.424286197384975441e-03,-9.788389525005028347e+00
1.001595486942735702e+00,-2.922186818320920802e-03,-9.790103420691202984e+00
1.000968289763799701e+00,4.049480889649908696e-03,-9.793545705699488124e+00
1.000190782834719405e+00,-2.039144295416996967e-03,-9.787569535368472629e+00
9.994251156239405409e-01,5.123903282894208891e-03,-9.794624766620840361e+00
1.012712033452957794e+00,-1.844811550043786797e-03,-9.796646139988334667e+00
9.986431520288774344e-01,2.916526027252405208e-03,-9.794793424397997939e+00
9.934622949748220799e-01,-5.464809467463105710e-03,-9.798793767910684238e+00
1.003144430356857963e+00,3.521487703812251763e-03,-9.789347793779858975e+00
1.002450067840954917e+00,8.644400602644515888e-03,-9.787647829342333239e+00
9.977169808499033454e-01,-3.768552048646039553e-03,-9.797820920766168840e+00
9.965950995482160124e-01,-2.473370952397409544e-03,-9.797331083550949060e+00
1.004910611192866510e+00,4.285147213573793851e-04,-9.794971889076812488e+00
1.005615433042420070e+00,-4.726421752513793213e-03,-9.798122368182754727e+00
9.981546533018748057e-01,-4.503676793092799085e-04,-9.787015182617157194e+00
1.005526239645127662e+00,-8.863501894081486990e-03,-9.789371783695118623e+00
1.004824986693461097e+00,9.540339425870073692e-03,-9.790074777123839667e+00
9.980710478709088340e-01,-4.037730869364779610e-03,-9.801147779469298271e+00
1.004753393217703739e+00,-3.899823516172085721e-03,-9.790318454394833836e+00
1.002499283272613839e+00,-6.793389413112895826e-04,-9.797802447049276608e+00
9.997664771318321986e-01,-1.965680435868858832e-04,-9.792173265590315978e+00
9.987804824599439968e-01,1.981360881722193240e-03,-9.787425079278230911e+00
9.966473900786960716e-01,8.263611356846500833e-03,-9.787483740147560951e+00
9.996995585831623954e-01,-4.504063511294511928e-03,-9.795272814858781985e+00
9.920920238135056968e-01,-6.270454575502822439e-03,-9.791802097122387138e+00
1.005017383281830989e+00,2.676011312615832801e-03,-9.798202912505605156e+00
9.929770414431861036e-01,5.963938833003017918e-04,-9.790184075358080662e+00
9.944163593985091421e-01,-7.529909944048154748e-04,-9.801654203314040359e+00
9.982699084958275293e-01,5.811817448792048167e-04,-9.798247310286866352e+00
1.005459527383669727e+00,5.186449408556869853e-03,-9.795459752727730063e+00
1.008634280970796882e+00,3.181863059082112085e-03,-9.791438180130487723e+00
1.000072376193736678e+00,2.675748070876949854e-04,-9.799516605713048278e+00
9.957118554077661887e-01,-1.468474943118158217e-03,-9.794730912432486392e+00
1.000599954371029998e+00,-2.675056619415537833e-03,-9.797793744740687316e+00
9.966171401824351905e-01,-6.264039181409600775e-03,-9.792068279389676277e+00
1.004854902818472784e+00,-1.349540442125889703e-03,-9.795882312968565486e+00
1.001913234994693758e+00,1.974042083735966149e-03,-9.797728252708582275e+00
9.981557556109011964e-01,-7.027676482234339328e-03,-9.794302546320333036e+00
1.000828451822372678e+00,2.955783447418384915e-03,-9.796148524138761360e+00
9.930818411768858045e-01,-4.013687286325229309e-03,-9.801326835157947670e+00
1.001299566997674084e+00,-1.464932736928503849e-03,-9.789299670095084949e+00
9.977786034953123329e-01,-1.798078679332084122e-03,-9.795223957314128427e+00
9.975608794124440903e-01,-7.224869677737182430e-03,-9.795771745237178862e+00
9.973192572710145587e-01,-1.567257432510568704e-02,-9.791512461404758838e+00
1.006294650248409583e+00,-8.761258657892399479e-04,-9.791029620110711207e+00
1.000604574766279953e+00,4.241068221270406259e-03,-9.780388762373993572e+00
9.960013846354909273e-01,-3.287584734756776334e-03,-9.785152357155638470e+00
1.002651251440592972e+00,3.382450875033258478e-03,-9.799814824279298620e+00
1.002697388727599836e+00,-1.167354500636518487e-02,-9.789761437476682815e+00
1.006657113134593828e+00,-2.704081153191068877e-03,-9.791943675684034787e+00
1.002346735752736473e+00,1.759370192683620045e-05,-9.795434699613316809e+00
1.005709108648976002e+00,9.733730849482895384e-04,-9.788691849080334961e+00
9.990850660551693352e-01,7.908244902671212554e-04,-9.795039329611737955e+00
1.008429418730741878e+00,-1.236422957513398039e-03,-9.790605904957951466e+00
1.000899229233355614e+00,-1.069196350021547372e-02,-9.797200693333490307e+00
1.007260198515991689e+00,-4.532915910450959623e-03,-9.798469867169467662e+00
9.997906854316582770e-01,4.707303463551869988e-03,-9.798034750803655157e+00
1.003562961159487177e+00,3.102712485013502976e-03,-9.802601343470399797e+00
9.936672311868941510e-01,4.974359491407799247e-03,-9.790381803477075096e+00
1.003160034540347079e+00,-3.013417182077311567e-03,-9.794712612613110991e+00
9.990340426319352929e-01,-7.442664996761893387e-03,-9.788401318919714100e+00
1.000826409856410582e+00,-1.026237004399183084e-02,-9.791540209213026813e+00
9.991579604028816286e-01,-1.576624133849416354e-03,-9.794141077873858237e+00
9.979583443255040098e-01,-4.855348252916925900e-03,-9.799052963351899237e+00
1.005705657685675991e+00,-2.420093812042667814e-03,-9.795354457150184047e+00
1.001139740110555287e+00,1.074512271960882757e-03,-9.788459933008830660e+00
9.982338776635406585e-01,1.107232821216599071e-02,-9.795769664625542106e+00
9.973520084724742940e-01,-2.412584641128502887e-03,-9.786911895260448802e+00
9.958571009753371950e-01,-1.398241738055459871e-02,-9.781736348169712159e+00
1.004792025854271964e+00,-8.595351446665209366e-03,-9.798282546406181126e+00
9.987095010498932002e-01,-2.734246404345780888e-03,-9.790581892933850838e+00
1.002925596482791448e+00,-8.893608117029576030e-03,-9.788179205924775417e+00
1.007638774670815751e+00,-1.890519783841224793e-03,-9.798978695907440084e+00
1.004207683957148989e+00,-1.155682758830330926e-03,-9.801241164766537395e+00
9.965846404811092851e-01,4.620917162125960653e-03,-9.787409096996086078e+00
9.979216927402700943e-01,-3.058429077189938998e-03,-9.804764883778872786e+00
1.000178683014465220e+00,3.493102580042754812e-03,-9.807912790079745591e+00
1.001058438969734565e+00,-2.699212908068362570e-03,-9.799039931569433648e+00
9.940592288133109911e-01,1.014034709639709004e-03,-9.797125590645258342e+00
9.932561707525908723e-01,1.820542629241597276e-04,-9.799312611227954051e+00
9.998301051886718804e-01,-1.324665297581998150e-03,-9.800154257742729413e+00
1.009538762256774191e+00,-2.838232585338365879e-03,-9.793399997790899647e+00
1.002747983333102777e+00,-8.633739799296564349e-03,-9.794880218254073512e+00
9.913609037605133345e-01,-3.891970216467937563e-03,-9.792786899541123802e+00
1.002136947331465855e+00,-5.950832177516384054e-03,-9.798153856286118568e+00
9.993832333602610252e-01,2.617488554360571616e-03,-9.793525374330444677e+00
1.002245607816695028e+00,2.361095988864656730e-04,-9.804247996012595223e+00
9.962764200057062647e-01,-9.254816122819801982e-03,-9.796680148678813538e+00
9.989778677399280271e-01,1.017449468440824890e-03,-9.802624817268910107e+00
1.000641312754775303e+00,2.412986591191347389e-03,-9.803578996981617166e+00
1.001512118984276611e+00,1.930435243495787212e-03,-9.798508670614035410e+00
9.940112141110664101e-01,-7.393822563811614131e-03,-9.802780944110212502e+00
1.000443920730484271e+00,-3.377386524097333257e-03,-9.797758112682336318e+00
9.976403124678585588e-01,-1.719397623952834608e-03,-9.800663616945273660e+00
9.920995770364036126e-01,8.155035086730370864e-03,-9.796102858621971166e+00
1.005709470183340004e+00,8.334825795899327913e-03,-9.798093010367677991e+00
9.952144660188866343e-01,5.584209957760767964e-03,-9.800834136197744684e+00
9.947162607686640401e-01,-1.101869681015620918e-02,-9.789676801515298621e+00
1.003314303602018231e+00,2.148910775858301619e-04,-9.785720812340422015e+00
1.009442293466666474e+00,-1.775094100049195555e-03,-9.801990438464445177e+00
9.940646534091802655e-01,9.883109161406656434e-03,-9.789168801356318284e+00
9.982591884065465937e-01,-8.445869256014143858e-03,-9.798300356212184425e+00
9.994814999440057024e-01,-3.885480130414164894e-03,-9.790278841454162162e+00
1.009706639975535669e+00,-2.827934952790260581e-03,-9.805331200099898226e+00
9.950732569109920211e-01,-5.437450347050331104e-03,-9.797076118704200809e+00
1.000554091189211459e+00,-3.560716149634224510e-03,-9.789173899988300676e+00
1.000643088201839337e+00,-5.332071901449273593e-03,-9.792130141326536474e+00
1.001806879577659126e+00,1.442879140144648700e-03,-9.792826143806797390e+00
1.003437244908325532e+00,-7.115583199898056418e-03,-9.790314760625854262e+00
9.984581563582360930e-01,-8.101568861151759240e-03,-9.791813034756181366e+00
9.926380998215607043e-01,-4.211991499744631093e-03,-9.795516913892544864e+00
1.010509969970587951e+00,1.849484584863078304e-04,-9.799958712746857259e+00
9.968532208088491942e-01,2.752458987232829935e-05,-9.795215749375502767e+00
1.001776233397468463e+00,-2.012918571219964601e-04,-9.792836659728308746e+00
1.003436731592282305e+00,4.099626162006292374e-03,-9.791482698208206159e+00
1.007222692857224988e+00,-6.391959714894265105e-04,-9.792294606275266489e+00
1.000883744740621140e+00,1.599689373851606415e-03,-9.799447555022299028e+00
9.991055750896822296e-01,2.620049993264845535e-03,-9.796521038508876345e+00
1.009389442813048765e+00,7.282143253581579816e-05,-9.795696486183640417e+00
9.965791728089937740e-01,1.418470969629985262e-03,-9.785758412454423905e+00
9.980914830412327410e-01,1.520608942790980817e-03,-9.797743117444371208e+00
9.957055933128328151e-01,-1.578973010399338951e-03,-9.792291320170964042e+00
1.000508508253261652e+00,-2.166516406594469740e-03,-9.791263576785102174e+00
1.005028733365767257e+00,9.673482341105172494e-03,-9.782119565605226441e+00
1.001655564172236446e+00,3.402050806994556462e-03,-9.785517848930947338e+00
1.002164367819100343e+00,5.490648911837262697e-03,-9.787880504886059541e+00
9.978874729198803362e-01,6.244110988976882791e-03,-9.795038613909255787e+00
1.004314000651280958e+00,-9.623201571163303783e-03,-9.792425488640246201e+00
9.902045427778478626e-01,-1.279237382452366560e-03,-9.784408609130494483e+00
9.990578936037829427e-01,2.872495171413277319e-03,-9.791529026367316035e+00
1.001070021341021077e+00,5.814312857505444122e-05,-9.792022630879696266e+00
9.990655853604153425e-01,-2.586501111890910764e-03,-9.793952480232093194e+00
9.999808791158417698e-01,2.836827333730596642e-03,-9.797904318983594152e+00
1.004046985395843805e+00,-4.101592731870521368e-04,-9.797437587512680679e+00
1.001678206144181127e+00,6.288457270954368218e-03,-9.794019596724572452e+00
9.896664474099868825e-01,7.196206963913083596e-04,-9.794929182405734736e+00
1.000319345512186375e+00,1.337025004676109692e-03,-9.786224486754562690e+00
1.000531813546183590e+00,-6.515494477860932394e-03,-9.790530679283660831e+00
1.000500618774964545e+00,-5.908806325081018482e-03,-9.781771495267994609e+00
9.989997308044245017e-01,4.474218959474407335e-03,-9.794477499836226286e+00
1.000324849604548483e+00,5.993821665966375667e-03,-9.797616510230637843e+00
1.000372694173594867e+00,7.857346798873786646e-04,-9.793051874378521759e+00
9.989942522722247142e-01,-7.469624612423518377e-03,-9.790692232580584076e+00
9.969883334851868950e-01,-3.523084486794623819e-03,-9.794246567666508696e+00
9.970602136148191130e-01,-4.576046437530920845e-04,-9.789822353560738932e+00
1.004168485667431554e+00,-8.168684018392421975e-03,-9.788827781755257362e+00
9.971196280630487685e-01,9.395557512754811394e-03,-9.794268454019375625e+00
9.981472725418816250e-01,1.422002019955316814e-03,-9.788291618817037687e+00
1.007671850111086176e+00,-1.453535482787441345e-02,-9.797768408942488350e+00
9.983913408532458789e-01,-1.727038698155697284e-03,-9.792170516197810315e+00
9.984341371149998423e-01,3.851790463448598410e-03,-9.797007509228832234e+00
1.000489961068787181e+00,-4.191746668461057874e-03,-9.795158785786775013e+00
1.003307067472241743e+00,-1.054151183311796171e-02,-9.788060636856700469e+00
9.944470988892065710e-01,-2.159587322043143159e-03,-9.791184979658513754e+00
9.937515485933536841e-01,-5.947933570639023530e-04,-9.786654656700603638e+00
1.004490714734874501e+00,1.427150777770540106e-02,-9.779943741423608117e+00
1.005145437071967685e+00,-2.743712768570290891e-03,-9.783105151259137600e+00
9.960288879783985028e-01,-3.203639281775705078e-03,-9.791522954946449531e+00
9.975751288787747528e-01,-6.255517586291485348e-03,-9.797744573851725036e+00
9.983663702301909249e-01,-8.078793782099037788e-04,-9.797026073341669417e+00
9.976399016022117205e-01,-3.198407630878668216e-03,-9.789163602729958669e+00
1.002792413460796395e+00,-5.897555142732700297e-03,-9.789834641965930118e+00
1.010737052561887506e+00,-1.219862998954445235e-02,-9.793638450264523954e+00
9.863405682385952833e-01,-1.467373090690609651e-03,-9.794179473488037857e+00
1.004255814294684246e+00,2.784072942382615152e-04,-9.785967087520218044e+00
1.007528604797885752e+00,1.265683036708498523e-03,-9.804975775805866434e+00
1.006208084598490426e+00,1.155394372970526551e-03,-9.786507445288721740e+00
9.969247819556266155e-01,4.529390494400122730e-03,-9.796956998071385314e+00
1.009608122930147234e+00,-5.204664254563066278e-03,-9.789758660610605290e+00
1.002712235026907983e+00,-1.136137018432690875e-03,-9.791863988404415409e+00
9.958582758432859006e-01,-1.060204613774574922e-03,-9.800525460048412185e+00
1.003545030779204428e+00,-3.135340437505754196e-03,-9.802616073458654711e+00
1.004222051218275125e+00,-4.163135504990116663e-03,-9.796937940689986135e+00
1.007801701654423177e+00,-1.069993432856936044e-02,-9.785138121398057720e+00
1.005469321822128892e+00,-7.500314826496737699e-04,-9.781441093015450505e+00
1.004596411810620982e+00,-1.327951477337838485e-03,-9.802786200826101748e+00
1.009624078239560907e+00,-4.149575789969375469e-03,-9.785184895833699770e+00
9.941922418906121717e-01,2.822814350634305974e-04,-9.787549245843150558e+00
1.008307370891769805e+00,5.233779322966732386e-03,-9.793479275247225502e+00
9.945709593716542951e-01,-2.094861953558319924e-03,-9.801113536202507248e+00
9.961829751625740359e-01,-6.746917535623839397e-03,-9.791770291011914651e+00
1.006745096333618639e+00,-4.937219111879245087e-03,-9.795970189949482432e+00
9.952683149761639703e-01,3.230327949495936588e-03,-9.797247656077249900e+00
1.006116966191105355e+00,-1.656579581491228036e-04,-9.798451103298980058e+00
9.951028647966767560e-01,8.141257552949077853e-03,-9.799543449513480553e+00
1.001186684440328767e+00,-2.124036613172162503e-03,-9.788058656712140149e+00
1.000795181160010427e+00,3.527095919977925060e-03,-9.786115714401871557e+00
1.002209836392906839e+00,5.171181770302617220e-03,-9.796326590011414481e+00
9.972459200002935509e-01,9.115215363144706876e-04,-9.791903879170440916e+00
1.004405117806014713e+00,-7.048714401480282374e-03,-9.794418605176099746e+00
9.926141117320564922e-01,-8.552233443245455327e-03,-9.793589492318703904e+00
1.004637899714009519e+00,5.662893019203720651e-03,-9.797899886735372377e+00
1.005944976152167492e+00,-5.072707710221151071e-03,-9.785670601445735528e+00
9.944810332503045691e-01,5.238004363941368025e-04,-9.789097190135782611e+00
1.007355511453258412e+00,2.370199006227744799e-03,-9.800617526420857928e+00
9.957763575566110914e-01,-4.222461513526705587e-04,-9.793095969293956315e+00
9.883074372933351448e-01,8.164074433899957961e-03,-9.791987085716762351e+00
1.001785160464717217e+00,-2.394274193210088608e-03,-9.791561793645540135e+00
9.992859543004805056e-01,1.376313208477129846e-02,-9.792018091392751700e+00
9.989740632375400109e-01,7.135896422814817092e-03,-9.800583951182577636e+00
9.953542208547451198e-01,-6.431513585009502893e-04,-9.789639638931859622e+00
1.001231898405407605e+00,4.622441625335783726e-03,-9.797722917700880885e+00
9.975200406726244529e-01,2.560986275184177433e-03,-9.789224298541769897e+00
1.009769535163516752e+00,4.834668988676605293e-03,-9.784214173177382179e+00
1.009380887093577872e+00,-2.630497395563910490e-03,-9.795970938516587623e+00
9.998850874079195927e-01,-4.165293949231166359e-03,-9.802935112228279735e+00
1.000948515577261722e+00,-1.197243307048969111e-03,-9.788645445092159392e+00
9.997600807729052352e-01,-2.906673788565456232e-03,-9.794503097966657634e+00
9.889555615630284402e-01,7.902422840358195449e-03,-9.793983761579942993e+00
1.003108178642709181e+00,-3.636551572598091791e-03,-9.792690499708587737e+00
1.001293971350528000e+00,-1.021532251060773382e-02,-9.796164328717793524e+00
1.005966437211474940e+00,-5.276431862937276803e-04,-9.796236420808126510e+00
1.009085835521379870e+00,2.662678051226861648e-03,-9.799207481639522044e+00
1.001807106301629835e+00,7.435716998629880378e-03,-9.800710183098601647e+00
1.008796215396369211e+00,-1.001170541793102798e-04,-9.799077171621648930e+00
1.000894892660121549e+00,3.296994884762017262e-03,-9.791602559186369348e+00
9.987388615926747759e-01,-2.344747417312867746e-03,-9.794983704290928017e+00
1.000256506994263717e+00,1.322972434011065752e-03,-9.786240836659025888e+00
1.007233190126374023e+00,1.032088170633884642e-03,-9.794251664430106530e+00
9.923020927022673243e-01,-2.531643466468986355e-03,-9.804131304784615253e+00
9.995604836886443634e-01,-5.520513821814208161e-03,-9.787478534001413877e+00
1.000122908684029310e+00,4.218811613968021651e-03,-9.784657813284383110e+00
1.001171223603279259e+00,3.755300964267793262e-03,-9.797057358341200839e+00
9.986810552171161426e-01,-7.440805803996827436e-03,-9.794894157060575424e+00
9.905981618398611577e-01,-6.216549575574259294e-03,-9.794004172771046512e+00
9.962549531971595096e-01,-8.730039914342853369e-03,-9.793824069606761995e+00
9.999509823756503879e-01,-2.491907823313654034e-03,-9.795864181361052303e+00
9.987057028344635823e-01,-2.685864799067271599e-03,-9.789380334562293839e+00
1.000565859006543823e+00,4.888143033552176837e-03,-9.790946677135501375e+00
1.003386280271944653e+00,4.433472837114355199e-03,-9.795253049214529995e+00
1.001473156441103907e+00,-7.044632933923656616e-03,-9.787733981923764759e+00
1.000363799589939484e+00,-2.180825191841309933e-04,-9.794410637452768853e+00
1.000580244162031285e+00,-7.916512527484799444e-03,-9.799507327017396463e+00
1.001728390416428249e+00,1.911637128651901083e-04,-9.791638203032134058e+00
1.007458615727994555e+00,-2.484061854553010033e-03,-9.798440109994965397e+00
1.007690512883541389e+00,-6.496667217321063295e-03,-9.790838044849808242e+00
9.979105387455257103e-01,-8.982514423856446939e-03,-9.800530273700664097e+00
1.006493310540569786e+00,-4.549181355471842297e-03,-9.788383492153073462e+00
1.004606476505399915e+00,-2.805155847497156152e-04,-9.790989433380172358e+00
9.978001577062937111e-01,2.810235849333000534e-03,-9.797570414696147978e+00
9.970255271973575972e-01,-2.115198256888163077e-03,-9.791540937093918373e+00
1.003302878527822850e+00,-2.282004898257914902e-03,-9.796816770318917733e+00
9.996927969359081789e-01,9.358175071566898285e-04,-9.791921588277293864e+00
1.001378621394474644e+00,-6.894328407754672823e-04,-9.797548381544293861e+00
1.004279356999920214e+00,-4.210757496953443000e-04,-9.789534089579596809e+00
9.880961379345432061e-01,-3.395409847332475292e-03,-9.789729060793494142e+00
9.999913035001862793e-01,2.891029893034826248e-04,-9.802831107558704460e+00
9.862697560483552062e-01,-9.224141721992873627e-04,-9.788999144972205357e+00
9.981045095652728572e-01,2.709449467902073048e-03,-9.789676702494473304e+00
9.985138742218682140e-01,9.593205630037227949e-04,-9.799177929543281707e+00
9.971410030353657916e-01,-2.116414297775013904e-03,-9.796594224652086069e+00
1.006787832542901162e+00,1.326987382876940614e-03,-9.794072179940847889e+00
1.000891819182422537e+00,6.270089335945179618e-05,-9.795456048756225442e+00
9.858539229411982241e-01,-2.587729956779238286e-03,-9.791032845384711081e+00
1.004701684337476086e+00,2.549712290613133370e-03,-9.789567508787952121e+00
1.005558889113561838e+00,3.185068778474458174e-03,-9.785086809238123351e+00
9.940804747139854181e-01,2.359804558788774001e-03,-9.792101501524523854e+00
9.912531671103155251e-01,6.813434167063305187e-05,-9.794165726041331510e+00
1.002875015227641109e+00,-3.503751350061575474e-03,-9.792202093511374272e+00
1.000248049624057556e+00,1.224961353895122514e-03,-9.793991439448010539e+00
9.918502130491554380e-01,-2.798583046905577399e-03,-9.791843194290192898e+00
9.930063580219361530e-01,2.344459886996654637e-03,-9.802282259118483054e+00
9.971814883471993296e-01,3.957037348448677085e-03,-9.783359071504218463e+00
9.995148116231248325e-01,-6.318149290708349221e-03,-9.796285941109001527e+00
1.006435751300513326e+00,-1.343472426014246301e-03,-9.786212333922474471e+00
9.909680849549051818e-01,-1.106318155535603942e-03,-9.801999153203560411e+00
9.925455884505978155e-01,1.998745185485965685e-03,-9.789833783807713630e+00
9.984243291957227706e-01,-4.439600717256864289e-03,-9.789468235264344287e+00
1.002130967915942694e+00,1.091997177285188416e-03,-9.796322187282735072e+00
1.003011215550830837e+00,-4.749593708339956005e-03,-9.798222551053502372e+00
9.983558139432614498e-01,-4.057349578085515896e-04,-9.793341472302644846e+00
9.958516567674647879e-01,-6.039472141160738203e-03,-9.788483419780604322e+00
9.983202706492104728e-01,3.647047385157004429e-03,-9.793060687408322806e+00
9.976803512664207396e-01,-8.923936469151953765e-03,-9.797797440510919387e+00
9.940352795095316329e-01,-3.669964591576540744e-03,-9.795872836694385910e+00
9.960985559724926386e-01,7.409043470755716232e-03,-9.785428772322655178e+00
1.000670106960866557e+00,1.759181087712726257e-03,-9.796419186930094725e+00
9.980092490137065786e-01,-1.012152564525876930e-02,-9.791914068651138336e+00
1.001750879054513987e+00,-3.482627797521662717e-03,-9.786711206879671110e+00
1.000235663579614132e+00,-1.048629131668769345e-03,-9.791479969500830549e+00
1.001064714706849879e+00,5.335722445990844290e-03,-9.809931845183994525e+00
1.004960844364705563e+00,-1.151908302616565585e-04,-9.792665413407060981e+00
9.986017856332439768e-01,4.133377658408155832e-03,-9.791654683484354749e+00
1.009948928235073984e+00,1.037851437359424076e-03,-9.796977428918633990e+00
9.944002031797065655e-01,4.720155719383219844e-03,-9.784812424011180454e+00
1.004659463429079524e+00,-5.048135262528072667e-03,-9.786225531056755855e+00
9.984632686462368012e-01,-1.904556642469158777e-03,-9.789990046548522784e+00
9.988833874256952683e-01,-8.868425761472642846e-03,-9.797714558310198996e+00
1.003502314804710194e+00,7.960171326281663406e-03,-9.791211343206921214e+00
9.999687428219673491e-01,3.225245481828392137e-05,-9.793498194586556238e+00
1.006332422422299366e+00,1.382349618804380948e-03,-9.788253573079586545e+00
1.006207830417606974e+00,2.462010983173953862e-03,-9.793680150746846280e+00
9.984820897959627573e-01,2.732510521316701239e-03,-9.786861273440091935e+00
1.001393449876231356e+00,-7.363328014048211093e-04,-9.799441460106672608e+00
1.002072174569156537e+00,5.169560547174410076e-03,-9.798881954867992405e+00
1.003399089000798883e+00,3.520169348807627822e-03,-9.789593858923305802e+00
1.003446396857498479e+00,-1.666047328132003701e-03,-9.793023313662519769e+00
1.004917586850207822e+00,-5.768902900104045349e-03,-9.796627547210526643e+00
9.958736129471694731e-01,3.361075801163550692e-03,-9.790427790525983553e+00
9.972172664281701016e-01,-5.151501896567866993e-03,-9.803221181254544447e+00
1.005235687708057268e+00,1.930340817469201279e-03,-9.792067832155595397e+00
9.942605960738842841e-01,6.557347287392657244e-03,-9.790203286222789458e+00
9.987256896676849349e-01,-2.144510630258352098e-03,-9.790271975942363980e+00
9.971254147812235180e-01,3.070706694194251865e-03,-9.791298775775617358e+00
1.007642490309207828e+00,-2.957030833163528001e-03,-9.789111356740011871e+00
9.983025460536198992e-01,-3.864178328153631669e-03,-9.795459951035214274e+00
9.922695105509115043e-01,1.135083250961853351e-04,-9.791765094287315563e+00
1.002573515929709336e+00,2.027202652802961511e-03,-9.788699456086668249e+00
9.982822579464747381e-01,7.732256371049257143e-03,-9.784639933687426350e+00
9.987530507949514691e-01,5.738260376838765723e-04,-9.791756087795077335e+00
1.001618461220866729e+00,-6.212343962320402563e-04,-9.785996730161770074e+00
1.001906618150988360e+00,2.160913365729163517e-03,-9.788654505299552611e+00
1.003295315346771632e+00,-1.759823451027801855e-02,-9.793830935940153637e+00
9.967130949286396868e-01,1.371428240180038241e-03,-9.798913502673403997e+00
1.001551567111954810e+00,-1.237473263411963467e-02,-9.789622721953007201e+00
9.920205878924142073e-01,-5.112181087252871091e-03,-9.796713649538391522e+00
1.012069146686133347e+00,-2.986576927158127084e-03,-9.791840767200882922e+00
1.000385280168442748e+00,6.164247598307773419e-03,-9.790667059242014858e+00
1.008517895684349464e+00,9.058723907841539219e-03,-9.799339421542683226e+00
9.971872206187947230e-01,-2.259622774173882312e-04,-9.798647424539344897e+00
9.871041561475362158e-01,9.915659027234040822e-04,-9.790188069043221475e+00
9.962335888977474907e-01,1.513431150270217254e-03,-9.791003333583478963e+00
9.975949651541469176e-01,-6.279986592453568398e-03,-9.794111716814214219e+00
9.997503476096802899e-01,-7.053574382344001033e-03,-9.795140983561863024e+00
9.999024153406446125e-01,-3.317069590837849313e-03,-9.788678881986186298e+00
1.004502940859944626e+00,-4.518132644040031599e-03,-9.792899595439440219e+00
9.980657328346157486e-01,-3.569172259096728243e-03,-9.790023657106925015e+00
1.000232674826498913e+00,3.112300612502457743e-04,-9.795601430586103220e+00
1.008763065458429198e+00,-3.926281862238767146e-04,-9.794871724745831898e+00
1.000120187883041689e+00,1.131470189857078541e-02,-9.799049650383054200e+00
9.945388439613328524e-01,-6.844107388308852402e-03,-9.795722689366044733e+00
1.009676746512616630e+00,1.213117102605955951e-03,-9.787460056131688901e+00
9.993501334202059549e-01,-1.210856970426521430e-03,-9.793411924967788451e+00
1.007530943641537169e+00,5.558456392098648502e-03,-9.787364701541282130e+00
1.011904895305560492e+00,-1.703656363825667951e-03,-9.795390155519548614e+00
1.004720671558282596e+00,1.213842957484169600e-02,-9.788175939778451351e+00
1.001443664113038423e+00,-6.525484475838701139e-04,-9.792137050142704524e+00
1.010063342555206356e+00,-7.076111970447608937e-03,-9.797773123323857192e+00
1.006756624132562727e+00,5.258642340308912130e-03,-9.788021060759705350e+00
9.951360983958411621e-01,4.912248807532836742e-03,-9.793932574332938401e+00
1.009333024092056386e+00,-4.590422155525854600e-03,-9.793038770139455451e+00
1.003053158974163583e+00,7.891938812400061537e-03,-9.785386725333246716e+00
9.966943442567403055e-01,-2.361648284035316146e-04,-9.791196622828127971e+00
1.000460912509320233e+00,-6.210527944419957577e-03,-9.795977698487874363e+00
1.003784736081194007e+00,2.664337869610961928e-03,-9.792384942739666087e+00
9.999034589438567933e-01,-4.895138480723680748e-03,-9.795390051383670027e+00
1.010871921024653508e+00,3.145903184815161246e-03,-9.795842007060279855e+00
9.969775541899171811e-01,-9.803683840731164043e-03,-9.793697903607958111e+00
9.968755225858323410e-01,-6.944141194268504090e-03,-9.793666145298965731e+00
9.983891967147897617e-01,-5.514111838818734016e-04,-9.795532542171031309e+00
9.977989120454536787e-01,3.063044368794466329e-03,-9.796957652579664000e+00
9.969706947076415471e-01,1.098892970010879183e-02,-9.804694217572993864e+00
1.002085107287818744e+00,-6.721893962383877069e-05,-9.799323177364017923e+00
1.004509156510313916e+00,2.991344091991090040e-03,-9.796719772844124208e+00
1.000136246071531065e+00,9.131294106283383005e-03,-9.793840484079540332e+00
1.001184593249088595e+00,8.144581909651447396e-04,-9.797380540959395034e+00
1.009236717457050903e+00,-8.285182774005264705e-03,-9.799287643471817688e+00
1.010781672129953623e+00,-1.483566591250804617e-02,-9.792777551163915462e+00
9.990701774233075039e-01,-7.324187157543156704e-03,-9.800788554397485086e+00
1.001706561909828652e+00,-8.152167013226371481e-03,-9.800828917241329208e+00
9.967772975946137537e-01,-3.045176746030507468e-05,-9.791102750494919960e+00
9.906038736449622739e-01,3.722295744169004661e-03,-9.793294627154436327e+00
1.008448995005176041e+00,4.310755727418677692e-06,-9.791908407337063025e+00
1.006454566698205211e+00,-1.157168250026966447e-03,-9.796711455387418610e+00
9.964371248261656433e-01,6.231699369231683688e-03,-9.781282907314158948e+00
1.000624799625667638e+00,2.180309250611320825e-03,-9.783657352930831053e+00
1.000522119786028563e+00,-4.698903224248596189e-03,-9.794864473147256945e+00
9.931192725823981826e-01,-1.043700479106120758e-02,-9.797257172116724533e+00
1.002610746791130936e+00,-1.375954567023597109e-03,-9.795625938863475213e+00
1.000811249851053519e+00,-1.351122408812315554e-03,-9.796792883530423879e+00
1.001498669952595177e+00,2.600502786996141194e-04,-9.792830143273196342e+00
1.006536177242028929e+00,1.954569921112472939e-03,-9.798039891305723614e+00
9.982114516139787286e-01,6.070767738504295394e-03,-9.795594892784116325e+00
1.000522063066805911e+00,-3.859048521150195820e-03,-9.804349239756959378e+00
9.964154835535450339e-01,-4.226674710659725220e-03,-9.791878589666804800e+00
1.003784489237370403e+00,5.147661807499983103e-03,-9.802350778417020294e+00
1.007837946253887118e+00,-2.829271088255968028e-03,-9.788133029886955327e+00
1.006860855165114366e+00,-5.746526234197807045e-03,-9.793964687301128791e+00
9.992462655743151734e-01,-5.870775790935166272e-03,-9.792843401107518275e+00
1.000849307699435808e+00,-4.133852118719839874e-03,-9.800185338980249128e+00
9.991845742360691007e-01,-6.184563839662076540e-03,-9.793370969626282729e+00
1.003791182864529619e+00,8.941467649791955087e-04,-9.798547441908674216e+00
1.002465591175330406e+00,-4.262414633780679807e-03,-9.794179972462103478e+00
9.976174607477132916e-01,-4.479738074752284693e-03,-9.795194370912785331e+00
1.009184222796872143e+00,-9.400342526685458167e-03,-9.784285139941726328e+00
1.007516252343593655e+00,-1.409170924691401962e-02,-9.792455373906390648e+00
1.000966504168974147e+00,-9.342852411480480129e-04,-9.795166176675355274e+00
1.002636802015390183e+00,1.102116513006678317e-02,-9.793225177027281347e+00
1.005485971288741176e+00,7.164364720266798783e-03,-9.796523234862865692e+00
9.970325363645453631e-01,-5.054437595475917006e-03,-9.791404811751231563e+00
1.004035922972916550e+00,-1.085215529011683902e-03,-9.792682013467128854e+00
9.995581738216586798e-01,-7.425566130208494792e-03,-9.795280593780958611e+00
1.001445568485445969e+00,9.298534359705929765e-05,-9.796089296953303105e+00
9.934052427125411588e-01,-7.106214688693142899e-03,-9.801994959133953245e+00
1.001513950183875012e+00,-3.077238052242882698e-04,-9.795836781846761099e+00
9.982053602578835338e-01,2.696485304598226183e-03,-9.793257757036872846e+00
1.001845398024768130e+00,-6.768144288968340819e-03,-9.788524331808840628e+00
1.000142623607915171e+00,-1.376812338935986743e-05,-9.806273548674321106e+00
9.937493249026293496e-01,-2.641271836307955770e-03,-9.800558847041918042e+00
1.001815409166325610e+00,-4.964937605654978423e-03,-9.790593022727856365e+00
9.968449626975751654e-01,2.476959262119633222e-03,-9.796355509342340895e+00
1.003451710611779957e+00,5.780445666974598322e-03,-9.793571245544789861e+00
1.005301562109013114e+00,-1.270717165440964514e-03,-9.785591770018662316e+00
1.000296043771685905e+00,-1.314077767978534192e-02,-9.794648556285144636e+00
1.002789372907248566e+00,-6.724715269821798617e-03,-9.795325931906926797e+00
9.888619299711676192e-01,1.365966673917907472e-02,-9.790441006716825711e+00
9.978357936894900471e-01,-4.942448033615752002e-03,-9.796012371217980075e+00
1.007902039576497710e+00,-2.698713663008090423e-03,-9.797916305305424345e+00
9.956205983541230875e-01,-2.832115812265231704e-03,-9.787685896671323604e+00
1.006079711648488528e+00,-4.672267493775481353e-03,-9.786962147195636064e+00
1.002793553883376099e+00,1.945966141323435521e-03,-9.793651766809603032e+00
1.002225018535160439e+00,5.025299279325970772e-03,-9.795099816627992340e+00
9.916154152489776719e-01,1.776279453341703986e-03,-9.791824819129061552e+00
9.970199023864824150e-01,4.926156942130010402e-03,-9.792165939764439386e+00
9.887550484324364453e-01,-1.083276082873647819e-04,-9.798200093369475283e+00
1.000224562023718011e+00,4.232432035308987886e-03,-9.784256028045886566e+00
9.967463540901809749e-01,1.287207594217658433e-04,-9.793251245163085983e+00
9.964687122490871740e-01,-9.243335659378617338e-04,-9.791734791297734830e+00
9.909846004293646482e-01,1.914611971590882275e-03,-9.807031731518243589e+00
1.000680718667460667e+00,-7.231423855024236153e-03,-9.791186003445004005e+00
9.903389799039065133e-01,2.979646337428619625e-03,-9.787675526670728487e+00
9.965579001743715137e-01,1.003364928265411578e-02,-9.800865704746165363e+00
1.007383322565067907e+00,-1.150278533890777485e-02,-9.791945324530335171e+00
1.001172485506371279e+00,9.306227679849636905e-03,-9.786544833168829172e+00
1.003244615783809746e+00,3.715259417390474449e-03,-9.797528256447550987e+00
1.003345939266715225e+00,-1.010244740310048753e-02,-9.795250676856168681e+00
1.002527950584909400e+00,8.833876940430501756e-03,-9.791955735602776656e+00
9.969959623763000600e-01,3.792636654628232969e-03,-9.796124988596004002e+00
9.965100328372596961e-01,-6.680483882081057583e-03,-9.785527283743510552e+00
1.000659450417725083e+00,-8.109860995387447799e-03,-9.796167685238627243e+00
9.952363672504718206e-01,-1.735204077791026832e-03,-9.796500698027475806e+00
9.984630106834095908e-01,-1.106641237306421610e-02,-9.790139132770354635e+00
1.003826504089020855e+00,4.234442081713144651e-03,-9.799150139876585897e+00
9.978704761268989420e-01,-9.217849899093952682e-04,-9.792214797465806697e+00
9.925539737960163977e-01,-1.973704342198266855e-03,-9.790266721814862905e+00
9.994162126236839638e-01,3.512026567573483561e-03,-9.793057942334931099e+00
9.965673730656732232e-01,-8.381651771994029845e-03,-9.801351760241436395e+00
9.971350512450141146e-01,-6.912152230213967213e-03,-9.796038008027625921e+00
9.971741884357619989e-01,4.946235348920938364e-03,-9.793714778970128876e+00
1.002249897542873747e+00,-4.093303934768477426e-03,-9.793500514384334110e+00
1.001507448047840754e+00,-1.690923343456626413e-03,-9.793431980994407482e+00
9.994277541049946256e-01,7.958312113381825134e-03,-9.792257717548720208e+00
1.000914447193820278e+00,-2.652817764280785383e-05,-9.794107363372205555e+00
9.985563500947925997e-01,-3.377940631742312391e-03,-9.794171815981242091e+00
9.943396582549886009e-01,1.090518371177495553e-02,-9.780871642988010706e+00
1.002278651172093582e+00,-1.506984805958914986e-02,-9.791938269897256575e+00
1.003191456510657664e+00,-7.735265955986702843e-03,-9.797613343781492290e+00
9.992213830796586871e-01,-9.140798721709066099e-04,-9.798790751896010676e+00
1.008332046092175860e+00,4.098809449605655790e-03,-9.792819398282366805e+00
9.922970918661663253e-01,-1.035076283401683943e-02,-9.795009534041515309e+00
9.975692960419157984e-01,-7.657097636041832779e-03,-9.792639694395070649e+00
9.977911474672548353e-01,-7.832912064260770567e-04,-9.797217953979075133e+00
1.001971868257325760e+00,2.241247496672664399e-03,-9.788773907042974898e+00
9.964343483884388064e-01,8.607185613125284754e-03,-9.790231703531178553e+00
9.917309566866943094e-01,5.520896540135516138e-05,-9.795354429818369013e+00
1.002253302878510555e+00,-2.446541555328051332e-03,-9.799346954103762997e+00
1.001423833684719433e+00,-5.651033143997838577e-03,-9.793406468083995620e+00
9.948353792508730642e-01,-4.450064196980085124e-03,-9.792873155663530227e+00
9.972872205536006396e-01,3.355410393062295028e-03,-9.799484358573625542e+00
1.001467904055982627e+00,1.947258610497699591e-03,-9.799488171673548464e+00
9.987205763880399045e-01,2.254443983710171552e-03,-9.796170199681160540e+00
1.004768727110866955e+00,-1.326897486757648136e-03,-9.797829968518282584e+00
1.009573935625227570e+00,1.538424565721491178e-03,-9.791375946937705521e+00
1.001039944839748230e+00,-4.000477538676741780e-03,-9.793570628990515559e+00
1.000717288584572096e+00,9.793466983779796579e-04,-9.789940329928649376e+00
1.009136345953582925e+00,4.769271051294234325e-04,-9.790885206250056427e+00
1.002641300011023917e+00,-1.619099507155896201e-03,-9.795106353169055424e+00
9.928647857478877237e-01,-5.588297572116000290e-03,-9.792160867358850496e+00
9.983263357133598248e-01,-4.503927116092515393e-03,-9.795706793711696392e+00
9.989884278247566085e-01,2.528927063276428192e-03,-9.795350041742604930e+00
9.863222144898763366e-01,-5.229034492267380964e-03,-9.790652819791347383e+00
9.908084183227358066e-01,-5.327428074136088265e-03,-9.801786003999648500e+00
1.002426990307934584e+00,1.106769706110451862e-04,-9.786651691474588688e+00
1.004088140018562170e+00,-1.936544881442366257e-03,-9.791709672541001552e+00
9.940257708867795694e-01,-2.489171335382539541e-03,-9.801351952566665915e+00
1.001033344604775444e+00,6.234118397825329401e-04,-9.786971620543624795e+00
1.001036439108240916e+00,1.791309420600241311e-03,-9.798241505657287576e+00
9.896658237587707685e-01,4.801382762887868201e-03,-9.794840483796170005e+00
1.005030436005183603e+00,-7.430525419226004496e-04,-9.793451991647897259e+00
9.920703785444494605e-01,2.244019709345169717e-03,-9.791939437145847691e+00
1.002670616541721849e+00,-1.124462140096451701e-04,-9.790220356916485400e+00
9.987597027548501538e-01,-4.413531742605903904e-03,-9.794870595961510773e+00
9.931309512777374282e-01,-9.689166129431993476e-04,-9.784617290279550517e+00
9.977593660656938201e-01,1.761545901200120600e-03,-9.788102431575218532e+00
1.003847842467134210e+00,8.696137055328971924e-03,-9.788123931671785627e+00
9.995508745080469160e-01,-2.764220029173789644e-03,-9.802194801454051643e+00
1.000939253120566752e+00,-3.084891222613866339e-03,-9.794807581090584137e+00
1.003055392417886216e+00,2.124590628370339254e-03,-9.793434244096594909e+00
1.000327997803113655e+00,1.747623460350027210e-03,-9.784139046002218620e+00
9.946881434446335213e-01,-1.260131901565980997e-03,-9.791284306148719807e+00
1.002590266403596386e+00,5.421517488810451146e-03,-9.799264161377637450e+00
1.004006378545903244e+00,8.345287000660428153e-03,-9.798098415494447266e+00
1.000036320283744340e+00,4.234499211106477860e-03,-9.791173166825299035e+00
1.004546651148774394e+00,5.360110026722379479e-04,-9.793732897990157227e+00
1.001446605177242821e+00,-7.125896597368640284e-03,-9.789627925835622690e+00
1.004968884144549657e+00,5.402278489967983661e-03,-9.792507497438005970e+00
1.001250760501693149e+00,-3.023982580475883652e-03,-9.784727774297742542e+00
1.004362020828922120e+00,-8.816830009620187786e-03,-9.788150048732003228e+00
1.002563700121315904e+00,-4.400780774852755713e-03,-9.795961690823364876e+00
1.006058872448108765e+00,-1.385601928258394606e-03,-9.789044538076172586e+00
1.015461593528504070e+00,1.017224509277946803e-03,-9.791053964092553130e+00
1.010427865796957869e+00,-5.529954489325254047e-03,-9.790259839915961493e+00
1.005475748322340435e+00,4.029021535405735190e-03,-9.803003544080411302e+00
1.004183979074995570e+00,-2.019613022594126620e-03,-9.787775288125779127e+00
1.005066273694668499e+00,4.029288552746138584e-03,-9.797310526244714879e+00
9.933592959819032009e-01,-2.033653119218849052e-03,-9.789565197878296487e+00
9.948535401778724196e-01,-4.614613610201221197e-03,-9.793175469014716583e+00
9.971986709721012421e-01,1.532863284350231272e-03,-9.800712674604250552e+00
1.003964050112583051e+00,-3.101942698514359746e-04,-9.802202017880102147e+00
1.004242337339485092e+00,1.930123415188751820e-03,-9.795824195816717150e+00
9.876865146124311767e-01,-5.736352300665829157e-03,-9.794152710081958091e+00
9.996006027437442931e-01,-1.282737844374443048e-02,-9.788303317575101303e+00
9.966519895656873462e-01,-5.832910373616123460e-03,-9.786817794187610886e+00
9.933365826358346862e-01,-5.122966595245479274e-03,-9.786864636777195869e+00
9.967214921744327327e-01,-8.485584360654040495e-03,-9.793581575254004079e+00
1.007478954209506838e+00,8.665545973143844345e-04,-9.793361742836180994e+00
1.001442234192147174e+00,9.120542282968402328e-04,-9.792032430110307217e+00
9.968375369068460667e-01,-6.190950118985389869e-03,-9.796820021778481546e+00
1.002044480967236195e+00,-1.230332360084283871e-02,-9.791768434176693958e+00
1.003258985226679778e+00,8.824266878647398643e-03,-9.790978779294094991e+00
9.934049288655345533e-01,3.104744699681215303e-04,-9.797365186830127470e+00
1.005781673611145122e+00,1.964086874056092998e-03,-9.800618965826160434e+00
9.998923669238611867e-01,-2.118849767983386860e-03,-9.796761677088225539e+00
1.003823509754500520e+00,-2.622731298125412919e-03,-9.803575221213881363e+00
1.004042021965826370e+00,-3.006141322220394398e-03,-9.795497076035729833e+00
9.988155690026694344e-01,1.558737861020448876e-03,-9.785394632038604712e+00
9.978009179747516777e-01,1.275638411308840448e-03,-9.789041864255105807e+00
9.998604308593895817e-01,-3.117232655541195274e-03,-9.798173135827930480e+00
9.965142679341493226e-01,-6.374587973290584547e-03,-9.793524615017117796e+00
9.950983778150079839e-01,-8.092406828577546757e-03,-9.803247643593003602e+00
9.991915206607578925e-01,4.653721341040160074e-04,-9.791224226920865803e+00
9.997766073541760612e-01,4.382447700988760346e-03,-9.786256586199577612e+00
9.959428305468033260e-01,-8.932605359329310593e-04,-9.793068342483913113e+00
1.004128087047598816e+00,-3.264181537184859209e-03,-9.794515415424708493e+00
9.954049868314730487e-01,-7.019562394961265973e-04,-9.794215936282624213e+00
9.982487468200292868e-01,5.479082904931259837e-03,-9.794492018127709088e+00
1.004760645770408578e+00,9.311484925307318694e-03,-9.791034395199019968e+00
9.963347364586133681e-01,-7.168101889984450576e-04,-9.792117422178145958e+00
1.006340248996660858e+00,1.116101217205511158e-03,-9.799331611774512396e+00
1.003572641511437435e+00,-3.679919676223260359e-03,-9.800629904009143800e+00
9.898496289688816230e-01,-6.765650236604315790e-03,-9.792846626467103022e+00
9.923889228866400458e-01,-2.282397616277147614e-03,-9.786126027552331408e+00
1.001643052817770663e+00,-2.643852364363197521e-03,-9.797158092677614505e+00
9.963914639906163995e-01,-3.674427288802349732e-04,-9.805562417709023038e+00
9.927695783507748395e-01,4.996925791185978863e-03,-9.794631398412910528e+00
9.997681345840098155e-01,3.717739030672241943e-03,-9.790256192966236171e+00
9.964445973035436221e-01,2.481258390539340525e-03,-9.792537469758080704e+00
1.005345073013659496e+00,-5.980940963085506872e-03,-9.797735083844266057e+00
9.984743120308341435e-01,-1.094851538914233709e-02,-9.792411439424688169e+00
1.002594705163420530e+00,2.183539509185108973e-03,-9.793473150748376099e+00
9.956876143505790644e-01,1.127730579604149103e-02,-9.800003235222725095e+00
9.996710160388649902e-01,-3.996695550584370392e-03,-9.791454272364504163e+00
1.001846364924966259e+00,-2.637307905072654168e-03,-9.788582621037424047e+00
9.977371200745331903e-01,-7.866234632313553674e-03,-9.792819879866678789e+00
1.001777743634844509e+00,-2.732972958274767442e-03,-9.798345147048534542e+00
9.971205562039895387e-01,-1.491842059101414382e-02,-9.795243546991677874e+00
1.002978463076282800e+00,1.233200320507343156e-02,-9.798104409620989941e+00
9.974024860273138504e-01,-1.910738814665754060e-03,-9.801123112015782013e+00
9.978508192704056423e-01,-8.128259111559793179e-03,-9.792621068508434945e+00
9.925229465851470589e-01,4.385683804286263920e-03,-9.801155719162499835e+00
1.000263104149294868e+00,-4.223981371201185157e-03,-9.791696528007422629e+00
1.000582960348621153e+00,4.867101251322301057e-05,-9.785875474889001779e+00
9.997030294025546215e-01,1.313913867939458255e-03,-9.788015995330555441e+00
9.919808045234373983e-01,-3.621094138101263547e-03,-9.797510659236140285e+00
9.862599299330476743e-01,7.961659642962165984e-04,-9.784979751600154430e+00
9.986672836326255798e-01,-4.181460725295775387e-03,-9.797399417344012207e+00
9.978294383988405292e-01,1.183729500009525655e-03,-9.795238737215717251e+00
1.007715983682055061e+00,-8.522078989129787396e-03,-9.803123775784651883e+00
9.967108599239943301e-01,4.536400103535198538e-04,-9.793778690680403187e+00
9.986696176415630344e-01,-1.542450772636500900e-03,-9.791081701896336753e+00
1.001002961554527726e+00,-7.049637074269982616e-03,-9.797108175647029071e+00
1.004748889386219979e+00,1.650060800147325852e-03,-9.797608313589138973e+00
9.966114176592103524e-01,-1.135480137545015651e-02,-9.800216690201178693e+00
9.949781888306256095e-01,2.734249696355063250e-03,-9.797578780548496624e+00
9.934472644062449787e-01,-5.798020514244927107e-03,-9.792619526303662170e+00
1.003588948955812743e+00,2.443395200529725753e-03,-9.790703163570771750e+00
9.971409841583507294e-01,-1.545187859649765384e-03,-9.796675649797439434e+00
9.985457520290310640e-01,-7.743691336081404055e-04,-9.793172969772786729e+00
9.919771098167018408e-01,-5.705050153781033619e-03,-9.804839599618455637e+00
1.000633732590163527e+00,-2.248307155679757884e-03,-9.799259134767677182e+00
1.000940907179793005e+00,2.035566663278075630e-03,-9.795085469197347905e+00
9.937663813449386652e-01,-2.701529078192294042e-03,-9.790974413138938459e+00
1.002489010869783925e+00,-3.381674263984228886e-03,-9.793937521169812754e+00
9.939015001327070609e-01,9.196639546726856004e-03,-9.794148893193488803e+00
9.995816668558731299e-01,-5.964009703593093660e-03,-9.793713282927928532e+00
9.835073225344278525e-01,-1.701860606499827708e-03,-9.804507629254972656e+00
1.000222684585410526e+00,-4.253574412637949401e-03,-9.796458879849335943e+00
1.002117530518343402e+00,-1.219057233979426065e-03,-9.788173101108508689e+00
9.942807114900417131e-01,5.906280228333841281e-03,-9.794353259079164431e+00
9.968979338724827111e-01,9.754446925899693671e-03,-9.789125433073792237e+00
1.004723170451452097e+00,-5.362510755657841008e-03,-9.788984523359005152e+00
1.000572372555558864e+00,-6.944260263896007319e-05,-9.792708229843920975e+00
9.991142053398811562e-01,-5.568813532944623911e-03,-9.780943303598302663e+00
1.001543411856106847e+00,-5.234782954859055863e-03,-9.802164228197479900e+00
9.951482287831577844e-01,9.893033793696155535e-04,-9.791363246874283277e+00
1.007011179111777510e+00,3.896886712234534818e-03,-9.799515270420178226e+00
1.004672587501381109e+00,8.645415360745828653e-04,-9.790673761972080058e+00
9.968034576101824085e-01,-2.245260835166839990e-03,-9.800103966032997604e+00
9.814256265373917376e-01,-9.718860733460321297e-03,-9.792516627994647394e+00
9.918994990269819345e-01,8.543315639086094052e-03,-9.788412329593791483e+00
1.008505376476865001e+00,-1.158447159013198608e-03,-9.795413345388373827e+00
9.911021847438653554e-01,-2.415206812666238594e-03,-9.798562627066282005e+00
9.919090277580543402e-01,1.012833671591998642e-02,-9.790459538469512779e+00
9.992381696642296252e-01,2.302647518052555829e-03,-9.798547029781410345e+00
9.976113933074514106e-01,5.507328387402384614e-04,-9.785646329168246282e+00
9.945238497356948537e-01,-1.276751021457696528e-03,-9.784917038678678125e+00
1.004620561901359066e+00,3.466522332107096691e-04,-9.798477737533394460e+00
1.005987178620463718e+00,-1.047853017037802398e-02,-9.799631053098369904e+00
9.998698453954885101e-01,3.294321478192886992e-03,-9.798974881667525949e+00
9.988144357105501747e-01,-8.319435496840278145e-04,-9.796602575506161870e+00
9.971811466617660491e-01,-4.343551837231057235e-03,-9.797968545962106646e+00
1.002972312536139610e+00,-1.292983249111898797e-04,-9.792238461211605127e+00
9.943088462987398346e-01,3.554413813305683408e-03,-9.800281008329807975e+00
1.003669272682046198e+00,-1.742865283658022978e-03,-9.786420979305036738e+00
9.934883507950628134e-01,-2.169462790810931969e-03,-9.788025609563815621e+00
1.002733843715612583e+00,-1.150463218350698206e-04,-9.788974602872547948e+00
1.000617678932618437e+00,-9.494477455868921903e-03,-9.789332488353897688e+00
9.908668850357703617e-01,-8.550363607991629325e-03,-9.791566792921091889e+00
9.973291845254326216e-01,4.241540202381507627e-03,-9.796241298052100532e+00
1.006688744402867375e+00,-2.933763851263395967e-03,-9.788906098747995443e+00
1.001837491704482108e+00,-5.274599577569911643e-03,-9.801216481141588943e+00
9.981539217236095052e-01,4.104159135801636882e-03,-9.798451908592848980e+00
9.947128048118961674e-01,7.687763893655929874e-03,-9.796142935585470113e+00
9.941114020434446141e-01,7.838749452138582541e-03,-9.791340700293254429e+00
1.009361585095019054e+00,5.815359854795844330e-03,-9.797480929221704216e+00
1.001796234389447537e+00,-6.705352660128140879e-04,-9.793702853380500173e+00
1.000653462421245976e+00,-8.254185529390813125e-03,-9.785729595383370949e+00
9.998805136385473524e-01,3.342173973343192436e-03,-9.791735342217664950e+00
1.000214063109382545e+00,-3.834575246974553878e-03,-9.799454729949447440e+00
9.986870162283739694e-01,-3.578141526746409472e-03,-9.793365079308545162e+00
1.000877381422071277e+00,-3.373150792277264300e-03,-9.798111651176949266e+00
9.989165041378985643e-01,4.938983497637616099e-03,-9.797104862360049182e+00
1.007202924953884304e+00,3.084777861905384222e-03,-9.801639690923956039e+00
1.004546700322480612e+00,-8.276016942765921291e-04,-9.785925507302140502e+00
1.001902830309046699e+00,-9.579985517626890199e-03,-9.788670396370351412e+00
1.005310012158190380e+00,-1.371560565021611583e-02,-9.799846809561415739e+00
9.958781549029164237e-01,4.606765646223758177e-03,-9.788962768222441824e+00
9.899203442855243340e-01,-7.858039915322327304e-03,-9.800040484217358738e+00
9.897696149485676331e-01,-3.346832830118936369e-03,-9.792070044669767270e+00
9.980980936588857988e-01,-8.961192645270302237e-03,-9.791541805509606178e+00
1.003505905828972367e+00,3.597010862574009059e-03,-9.798138177704331042e+00
1.001374104630258000e+00,-5.361504598060526892e-03,-9.790451801710066349e+00
