gyro_x (deg/s),gyro_y (deg/s),gyro_z (deg/s)
1.090275977795362485e-02,3.061679423688548271e-02,-2.690151531846133107e-02
4.048792574479865430e-03,6.310865991701372635e-02,-4.195060907012090196e-02
-5.829365466204546736e-03,2.742293369985802573e-02,-3.480756318942158922e-02
1.271165423444852761e-02,4.719741604048551670e-02,1.655376547690956893e-02
1.509776996613964477e-04,-5.152688868933212596e-02,-1.373316295985670642e-02
-5.809833186371819030e-02,3.743890884656097227e-03,-3.408864210563749414e-02
1.059445906367114873e-02,1.995616432635223189e-02,-6.641093434117859018e-02
4.611526803646022465e-02,-5.143906721933081197e-03,1.012878715269046881e-01
-7.009105891904269039e-03,-5.439073398084551259e-02,-2.211522099384777978e-02
-1.534985563297998866e-02,-9.824640038827633926e-02,-4.870704385886130694e-02
-1.346195756526847795e-02,-2.950463781335413080e-02,6.778414823121481358e-02
1.900205949170361355e-02,1.554428268782735711e-02,8.190726545968776695e-02
1.872994727198422360e-02,-2.257147368779252562e-04,1.307526204935074467e-02
1.622386636967537363e-02,-4.830657624375656045e-02,-6.026969724626273645e-02
3.860597175075091564e-02,-1.822753068354195441e-02,-7.653161787217691026e-02
-8.763043635334550469e-03,-5.041801281695756226e-02,-3.169732952295124112e-02
4.773164542167077778e-02,-6.903208907271890515e-03,3.474008661515563118e-02
-2.005891157986283355e-02,2.282061810585382829e-03,6.995475558304181662e-02
-4.723957100746183080e-02,-1.177042991776597151e-02,3.895679849137957673e-02
1.004504101782297681e-02,-4.767424318544733614e-02,-2.728798761620057634e-02
-4.531185633567339638e-02,-1.745671002697483931e-02,5.712935197380950014e-02
3.144393148295649559e-02,-8.832952479193657835e-02,7.621488589581476569e-03
9.732777630029063043e-02,-3.059178320186592762e-02,4.795514186887499253e-02
5.489489500111578019e-02,-9.021310013873161393e-02,1.932882112982237457e-02
7.401210405489264121e-02,-2.254439644601732851e-02,-9.190897098736012377e-03
6.925716338528594210e-03,-7.408321323297628602e-02,5.314163127002882042e-02
3.655100915261651207e-02,3.995835586434352132e-02,1.432626886043000466e-02
6.182968517236194471e-03,4.677236910241664575e-02,2.182723203330363265e-02
5.691760635695768122e-02,-2.918653784386567029e-02,-1.271212334176526938e-02
1.053749730925641545e-02,1.394881384345154560e-02,-3.315380158826419787e-02
-2.999795965898075650e-02,2.615763261394309092e-02,-5.944930720787672956e-02
3.363373952325245803e-02,2.698890208241726263e-02,-1.463873406386201510e-02
-1.370998833547935891e-01,-2.575078153558178415e-02,-1.893453328736703677e-03
1.030267080303610971e-01,1.636054012708102953e-02,-1.566284130897348335e-03
5.222202356580220306e-02,-6.455990854623399819e-03,-6.337699512028695248e-02
5.977607580225147155e-02,-3.345622609010939774e-02,1.041697681957157520e-02
-4.875421062606642643e-04,1.172877417964754941e-02,-1.563969642814539568e-02
3.629325651682620280e-03,-4.979574234591875592e-02,9.693122623983644465e-03
-7.368699677628783029e-02,6.844480933119258259e-02,2.204083371447070061e-02
1.985528223223639172e-02,5.090522874365546041e-02,-1.474001912738041528e-02
-3.202958938896635632e-02,1.146399117541601134e-02,2.917626709294547302e-02
9.723473667400797660e-02,-2.531515847395249263e-02,3.676786085147999011e-02
-6.544562961250088504e-03,-2.901932401265560485e-02,-2.532341189643845525e-02
-2.101433488101191530e-02,6.541075397474326383e-03,-2.063749191511130010e-02
2.555629387482880044e-02,3.901991365979635105e-03,8.163246708068193358e-02
-5.174504566412847784e-02,-3.804227421620574173e-02,-4.384919062992311684e-02
-1.082735468991076200e-01,2.100413772122586981e-02,-1.027849872936199838e-02
-4.979687718421994813e-02,-1.645837845383342490e-02,1.683007359789562632e-02
5.555930109469888606e-02,-1.642437462532049530e-02,-2.024485045822238538e-02
-2.081205864153037877e-02,5.856613706501514333e-02,2.216634275874220655e-02
-5.714402914487760887e-02,-5.909395965054518862e-02,3.774450210761540886e-02
-4.227773046503626592e-02,-4.782985105785767660e-02,-2.992237175671741758e-02
-1.480700971899726395e-02,-9.906775163481425488e-04,1.062250324629242801e-03
5.150998235182813884e-02,1.025323000937244759e-02,-2.988119322370324030e-02
-1.768950399317890249e-02,4.247096224045377594e-02,4.471905146220990501e-02
4.938773237595131538e-03,-3.805509703474123373e-02,-6.186359780334819980e-03
-2.638647936466060814e-02,-5.284982804066109402e-02,-3.610406271866443279e-02
4.048206860407745078e-02,-2.983244375836491963e-02,-1.743210668883265211e-03
6.674592292405398530e-02,-2.572588338409502462e-02,7.720121340566872548e-02
1.774935710599686439e-02,-3.818622368716265841e-02,1.059518220156622711e-02
-2.995416090417289678e-02,1.898942693083360139e-02,-2.254984700446944611e-03
2.961126509580373767e-02,1.902689755449223953e-03,5.182049665637796648e-02
-2.734109214608419075e-02,1.765026759176200125e-02,4.397780213121504911e-02
-6.655801790727688960e-02,1.019215604378844418e-02,-1.599995567730526022e-02
1.036186965299746854e-01,-1.860562931882622133e-03,-1.720944353734334478e-02
3.045183507042866292e-02,1.304830326410550724e-02,-6.083213433626629557e-02
-6.193728356362432352e-02,3.179517917251983850e-02,-2.595373327979171724e-02
5.834995837540230684e-02,2.383234483870143305e-02,-1.361311526984535705e-05
1.361337876538910342e-02,-2.528145482668130856e-02,3.179392810520319940e-02
-8.364928893365583540e-03,-7.581300546914978384e-04,8.328008068307477321e-03
2.200991908853416196e-02,1.953844695006091634e-02,-6.687830768200479781e-02
4.610417178102381441e-02,-2.282486368300522955e-02,7.638933187417379887e-03
5.552057498221431991e-02,-7.776966420671697910e-02,-1.169621400261351418e-01
4.265694968128477121e-02,6.872673045538145453e-03,4.686942717910824036e-02
-2.017671094326344353e-02,2.764513386538636555e-02,-1.184521474591739357e-02
1.424342161206676449e-02,-3.644984894918359974e-02,-4.769427843102348741e-02
-1.231559651567160074e-02,-9.458905539029983933e-02,-2.731959580926877906e-02
-2.765571221577031030e-02,-4.209184145241257752e-02,-4.915098974331173071e-02
3.083494528380026703e-02,-1.023038439693891438e-01,1.221211138014255773e-04
-3.684668967780702076e-02,-6.891491419962585130e-03,-1.956552884603785653e-02
4.567715786780116027e-02,8.998113707665185423e-03,1.831387246492734502e-02
-1.558788301356469133e-02,-1.588926891777508663e-02,-3.416060711323219007e-02
-2.755843338422573133e-02,-7.722398779122162729e-03,-3.074320548701464997e-02
-1.356933633092402211e-02,-2.786769431575132627e-02,-3.344922394102167740e-02
4.619439996059268583e-02,2.377917348761045616e-02,-3.740755339066364517e-03
1.202679665359854960e-02,1.691726815117063076e-02,1.566396551422523722e-02
5.633537089495560535e-02,-8.502378813234513777e-02,-4.546050055999280304e-02
5.893876020085120349e-02,2.109710806335235098e-02,1.142459407871987696e-04
8.080880479328067176e-03,2.384974212435112331e-02,2.287192332842847078e-02
-6.190108395244380002e-02,3.608669237391164825e-02,-5.128396510757606691e-02
-1.125940565828561536e-02,3.109934982818891164e-02,-1.752497059811033292e-02
1.499762162731719216e-02,6.842103267623377005e-02,2.446050060568028331e-02
2.941998415832339925e-02,3.790715506054704448e-02,-2.110055117376462286e-03
4.772380290434970890e-02,6.070183139588281040e-02,7.560648316942719140e-03
4.259871454200533925e-02,-2.939527292767414243e-02,-1.361483987601104506e-02
4.705229647408431561e-03,-7.730804165728489066e-03,4.004449624592629209e-02
-1.256084965343582868e-02,-2.041129360127480474e-02,1.298672293359053910e-03
-2.990522615537512599e-02,-2.864874649416446553e-02,2.972050248880642870e-02
-1.151871076858713462e-02,3.115477746774746384e-02,4.194742105802305721e-03
-1.685793178660646360e-02,5.460197876207108572e-03,1.034470607708933981e-01
-2.876731647989636681e-02,3.261332992804170244e-02,-1.134058867560992778e-02
-4.222253575636467776e-02,-7.006815656448656289e-03,2.865131948323285712e-03
5.689023660570842467e-02,1.440954763695704959e-02,-5.481239761462705640e-02
2.701147333353730653e-02,-2.565255003911787526e-02,-8.979970777737244711e-03
-7.434142849706830425e-02,-1.466143119864082335e-02,2.785933237331519527e-02
-7.136192878339998880e-02,-1.049965807980382249e-01,6.528507330480093351e-02
-1.073803871778688211e-02,2.442107064607725725e-02,4.894090280272022503e-02
-9.277441817930126566e-02,-4.003585960356870199e-02,7.167912019710993843e-02
1.103395944590881451e-02,-4.067734615374956481e-02,3.030240261189063450e-02
-2.572526876407935439e-02,-4.745441272162186086e-02,3.288828934282505417e-02
5.151863100767864467e-02,2.435252142149777616e-02,-7.236906789461294842e-02
3.458011832836263566e-02,-9.196791739534337581e-03,1.430022472599558336e-02
-4.527156692715444963e-02,-5.399055471874509432e-02,5.095248669186120544e-02
-1.454709508957223105e-02,6.550469939230571526e-02,-1.211751064463046368e-01
2.226750487172135876e-02,-9.110397414243111280e-03,1.527325013547415657e-02
-5.852047508311755686e-02,1.937362409295706033e-03,-1.366096198223818239e-02
6.928638488867018032e-03,-2.534125700909925158e-02,-1.306021481252112254e-03
7.721988825013861857e-02,-1.214271970862763374e-02,1.857465539342658886e-02
-8.311685189487568728e-04,2.526497247745109961e-02,-6.999244888551200972e-02
-1.069981540905982909e-01,-4.423079878005319043e-02,-3.873981980677298673e-04
3.471828473052007702e-02,3.763982189911495302e-02,4.146998785057722653e-02
-2.607150658636756685e-02,-7.362725021336430364e-02,-4.642421631194584147e-02
2.364539267603557246e-02,9.467916210032181756e-02,9.530238519421820043e-02
1.871104155772464542e-02,-9.143233398079432875e-03,7.390206543833628683e-02
1.288830800275763203e-02,2.843234460493549234e-02,-5.247037694869807062e-03
-5.768653482008542083e-02,7.126488725364130139e-02,7.357338305862983104e-03
-2.826865117646815140e-02,-3.357603178447424869e-02,1.108049810597162982e-01
-2.665689985528935449e-02,-1.984604286644136087e-02,1.997173047027914553e-02
6.545823545759660647e-03,1.029798469645052533e-02,4.667600587132152146e-02
-3.868864965596607169e-02,8.024739663387830263e-03,5.792356989655431630e-03
-1.133919062100908516e-02,-4.535914129640546827e-03,2.069933480071519533e-02
4.257764621751904816e-02,-5.275512047676619160e-02,1.323438055742193198e-02
2.083414384948301459e-02,-2.776376093305885431e-02,2.366450846267306382e-02
1.764596855247389101e-02,1.401506527027259960e-02,1.088990533275204647e-02
-2.193172882436488641e-03,-7.333248961838945840e-03,7.053009352078839882e-03
-6.002552526541589384e-02,8.151211201343858690e-04,-2.524265223663197874e-02
-3.594070558229445905e-02,2.573280699778143082e-02,-3.919006919557838781e-02
-8.529209217484966937e-03,4.941663855015147183e-02,3.949932489303900618e-02
8.571513290357732004e-03,5.757409624980187185e-02,1.853143557727445281e-02
7.994656983957969254e-02,-1.412738529371576277e-02,-2.911102866083658397e-02
2.652991497970822246e-02,9.976013946823816120e-03,2.141405990958482677e-02
7.290877305678110376e-02,-4.737862446137129646e-02,2.716257917147956585e-02
2.844712322763517584e-02,3.611135422152431801e-02,6.436517891639517708e-02
-4.358165346947998064e-02,-7.679534690061962099e-02,-1.679966267727760892e-02
-2.837823590186970644e-03,-4.750309490720101141e-02,5.097019051638389947e-02
-3.386133253017835354e-02,1.221675444509813481e-03,2.718784315977962676e-02
4.447544203493591919e-02,1.651667723342857552e-02,-4.454796541924774256e-02
-7.869273321003150690e-03,2.162395792205802376e-03,-3.873670024851565315e-03
6.315313399656048710e-02,2.404519311700363537e-02,3.692175987886741478e-02
-3.398263016613903981e-02,-3.889176132647240852e-02,-3.708395781243132433e-02
2.420155471903707740e-03,2.207885360677203437e-02,-4.631682509869441966e-02
7.182810690079977078e-02,1.126164063704934541e-02,-4.190706564648692678e-02
-8.001954245089681894e-02,-2.076008008415462097e-02,2.286529106977409909e-02
6.588203503094897107e-02,-6.747114599349307573e-02,4.436886284963387911e-02
-9.622829628100014118e-03,-9.749410494803040575e-03,1.040638072482261700e-01
2.169266370003157529e-02,-1.802866231140924647e-02,3.578725383045054925e-03
8.889501040253740619e-03,-9.746765189839690091e-02,-3.256955094007863739e-03
3.105982751865433641e-02,-3.566783007521905774e-02,-2.032462497469115364e-02
4.121124836058853019e-02,-2.934385230764729319e-02,1.086296354803064149e-02
-5.341912299061089137e-02,2.594972353103049481e-02,-3.349456975415220777e-02
3.803626311661656434e-02,-5.596821326982003714e-02,4.418316823269539950e-02
8.180450994951880828e-02,-2.452494943676067699e-02,4.208122820840727585e-02
-1.103004845044015109e-02,-6.281142894915087323e-03,2.813207229881878324e-02
5.814171099011109130e-03,-3.846278370608751523e-02,4.445973246903033374e-03
5.681811470686611368e-03,-7.709825037788965545e-03,3.670574937540843803e-03
4.721488751622170132e-02,-1.739724050353731732e-02,-2.995110639773047173e-02
-3.606845427199750764e-02,5.026973827907414011e-02,-4.214991335918529675e-02
3.446920944389826602e-02,4.321825999710736388e-02,-6.007705443583994526e-02
-1.937618616819453132e-02,-3.361432433707822742e-02,-5.346300463262435715e-02
2.309665556145582346e-02,-3.741084988072287953e-02,2.721920138844741502e-02
-3.742249905398298965e-02,-5.765936533168498912e-02,-2.706323664853842181e-02
-8.590297054047841066e-03,1.986605928346642583e-02,1.434986606089104326e-03
1.856795170467032477e-02,9.352077467090149851e-03,1.569554270578337254e-02
-3.543613015445576386e-02,2.963443794397021061e-02,-3.022695424625101296e-02
1.477169348127441509e-02,-1.244811526136294644e-01,7.887026549834690037e-02
8.341876795509246822e-02,-1.319469024677639253e-03,-2.065518172103678746e-02
2.818372123388009125e-05,-6.108711669876393247e-02,2.504003793751599996e-02
3.208269021068560489e-02,-6.494509477134696729e-02,-1.538228905507213126e-02
3.199740013363248925e-02,7.252724306740100657e-03,-3.908404625626610285e-03
4.758000834237659064e-03,-9.226125053400150572e-03,-9.723738153655771266e-03
-1.637060885836175757e-03,-8.261400448404089547e-02,-7.955050716774064723e-02
-4.164976707280500928e-02,-3.343298139153443038e-02,-2.397250892407462933e-02
-2.951087760793323633e-02,-1.576686158025408513e-01,-4.727664546726126349e-02
-7.817506895322588745e-03,-1.517900300313898901e-02,7.251635518862631358e-02
6.710552308482360673e-02,-1.437317703215907141e-02,-4.579400473935918252e-03
3.537146939576761573e-02,-1.311090102569671158e-02,2.042237978368248441e-02
-7.903805246837075638e-02,-2.541509245638191861e-02,2.951265108088571565e-02
-1.330552797917662448e-02,-3.966451269706897098e-02,-9.850659018717448923e-02
9.288903083296513397e-04,-1.870281461577984888e-02,-5.372946724445896473e-03
-5.865101961736057107e-02,2.652059992492204407e-02,-1.833115344943698002e-02
1.447941446463184897e-03,-1.879674812507040743e-02,4.683013718965391842e-02
-2.718912959090459200e-02,-2.782529940243885780e-02,3.589639368277291326e-02
1.725603738403316822e-02,-3.485560467239082888e-02,-2.320206509885994195e-02
-5.937927068228252003e-03,6.769314116503466483e-02,-4.004140125235258751e-02
2.705719373722625248e-02,5.665091422943768773e-02,-1.827420642311682053e-02
-1.869393066728264330e-02,1.127490163991312806e-02,-2.692529057092518316e-02
-1.088951293909006836e-02,-5.316648629178330476e-02,-1.594396260436127880e-02
6.911966940061341214e-02,-2.944294884109926666e-02,-4.264442372385774532e-02
2.464538968957627821e-02,3.764391660215951098e-03,-4.066018789208254713e-02
-4.622850442850647695e-02,6.839143078156497552e-03,2.787389520801750176e-02
-2.336784109130402715e-02,-5.212881959790789665e-02,-1.807502873471076091e-02
1.085509553928818705e-01,-3.640467856889011838e-02,-5.856461031073890988e-02
-3.716847159525209915e-02,-2.218879095701218121e-02,-1.236204429645923891e-01
-9.610840988052553671e-03,-1.306174832028175400e-02,5.798109971684977347e-03
-1.635566193043555550e-02,5.250631662857455778e-02,-5.790148827435936951e-02
4.192805951426075046e-03,-5.181630193857840461e-02,-2.205582599578995856e-02
-5.038163387938358190e-02,2.054289195084313662e-03,-8.784157073129938986e-02
-5.157062584430806285e-02,3.591687564116361354e-03,-5.556941560044559043e-04
-2.609417114483698723e-03,-6.842349246950489572e-02,2.416109604354362700e-02
5.142668181875225536e-02,4.447295560660377567e-02,8.523098011810165478e-03
-6.076385557765424938e-02,-2.115766662194816169e-03,4.510529514100484333e-02
5.834361171224992232e-02,-2.228858939932268704e-02,7.786340131939896436e-02
-4.482779261218268474e-02,1.540361629066988418e-02,2.554131635425679545e-02
-1.309802701889609400e-01,-4.643183252178502418e-03,-1.423641795545095394e-02
-1.887853965553759270e-02,4.838545208760259425e-02,-2.420039714373443604e-02
5.286366240873432987e-03,-2.835500034069802881e-03,-1.528246936158258323e-02
-4.939559570912029074e-03,-5.311602530274698621e-03,4.993366447769706680e-03
3.011246098351010730e-02,6.863957374553578128e-02,4.246643951222672797e-02
5.845592795745607750e-02,-2.795512251427313341e-02,-4.472853890427904572e-02
2.540533287026518552e-02,2.956524967382903255e-02,5.154037514071022064e-02
1.156137714189138391e-03,1.939775447007897544e-02,-3.159838750445764875e-03
-9.425181477013695741e-02,-5.088559276459520692e-02,3.531474802015407283e-02
2.321195305079762350e-02,4.874170564881081386e-02,-5.160921733017693330e-02
-2.750475311563406119e-02,-9.346021874902361859e-03,1.983919270487793235e-02
3.452687046943316018e-02,-5.822335241693398639e-02,-8.283593398982058015e-03
6.537788504538581680e-02,-3.345483597193461139e-02,2.178873573395787369e-02
9.961986284377256917e-03,-2.490086625485276109e-02,4.176152936933720528e-02
7.260259829640101914e-02,-1.934065871951147139e-02,6.151145703297623835e-02
4.599365104901226298e-02,-6.634211298068847483e-03,2.586382727476547669e-02
-1.728286910944587182e-02,6.405080376027309785e-02,-1.195258042550881306e-02
4.791327757177624917e-04,1.494440159544540431e-02,-3.993954476226917877e-02
-5.331418627701259988e-02,2.593845488752153858e-02,4.177481442575996240e-02
2.194317469083418431e-02,-2.383794482044263724e-02,2.195621091792447285e-02
3.798787991029313384e-03,1.512187594896430114e-02,-2.333255087560055785e-02
-2.586724700173709257e-02,3.791701453664444305e-02,1.592685250058618884e-02
7.263459703589499050e-02,-4.183268178153436850e-02,4.002529640426968210e-02
8.739972531983204729e-02,3.512734515536287960e-02,6.073802276922135937e-03
-6.087698720659352053e-02,3.698228065924461655e-02,-5.481123265808602631e-03
-5.298937804452554662e-02,-3.608795440790572850e-02,-4.956547410081309918e-02
5.087838368036261966e-03,-1.123860080286876286e-03,-7.406093583141204473e-02
-6.812884957816277287e-02,-1.579986879848902090e-03,-2.115039919521486192e-02
9.063433464034565193e-03,-4.983522852798929342e-02,6.049963888226692760e-02
-4.044712795060427524e-02,4.373983700555386829e-03,-1.643146901794458742e-02
3.307731939325465192e-02,-1.392343624324250857e-02,-1.359773918951263233e-02
1.162714199473790545e-02,8.880047045459336236e-03,-4.565237586563369171e-02
3.405165946635387020e-02,-1.087700516684102572e-02,3.515170733229387723e-02
4.756188549690582024e-02,1.358311208090658313e-02,5.296866277111976495e-03
-7.796493341415550171e-02,-4.004773926414974261e-02,-7.824854367752693760e-03
-3.433346499758606341e-02,-5.631573526750862507e-02,3.510122148892898253e-02
8.361720963109902163e-03,-1.932869312530675898e-02,-1.118751231692615561e-02
4.242716331541333125e-02,-1.555181020238238093e-02,2.681312436952015474e-02
1.910090668478729020e-02,9.415031827976247381e-02,-5.713453638049736938e-02
-1.735506314911944639e-02,-1.579851990824079552e-02,1.147371381564743021e-03
9.067571470999621214e-03,2.180478699043523691e-02,8.813319176790002790e-03
-4.000700505911348320e-02,6.510204457944751555e-02,3.163458146040724894e-02
2.738691521244292215e-02,2.865146785325185103e-02,-2.581142141972963752e-02
1.856754067715045420e-02,-1.555607668930844567e-02,1.391727550772281323e-02
1.616448909887123128e-02,-1.981641745333884153e-02,-1.071897343679309028e-01
-1.869931072914072807e-03,7.721487244387491289e-02,6.655034277884431387e-03
-1.799875500549043619e-02,1.681663701140337017e-02,2.594861436865954392e-03
-1.901952690945550497e-03,1.122948910507700487e-02,4.284540006089786884e-02
-4.577533876045413591e-02,-1.128557887579636695e-02,-4.412191711601693572e-02
-2.772127743437980980e-03,-6.145488690885303473e-02,2.129702309287455353e-02
2.800816231787304350e-02,4.806340709258048044e-02,9.868857638642113128e-03
-6.685729028470779184e-03,-2.150234266433220104e-02,-3.293435621371820082e-02
-4.436130504634655525e-02,9.890711264724546051e-03,1.386186776984909240e-02
1.026974155566221930e-01,6.323529960888803203e-02,4.365344008667988718e-02
5.454627875775513307e-02,-9.985227435094180815e-02,-2.416259323577818821e-02
-5.728695320684449449e-02,2.029830489432005169e-03,7.830637637159684056e-03
-2.438782027025105520e-02,-6.890971602155783861e-04,2.777452930562893108e-02
9.491749931612231128e-02,-2.379756592905620319e-02,-3.030698559351865246e-02
8.461818268675928845e-02,4.007014071137824512e-02,-8.716755068214143698e-02
4.323107255462652065e-02,-6.853380829928164275e-02,6.577887732838920420e-02
5.756515778760411955e-02,2.455401487504410216e-02,-4.060487266714919892e-03
-3.153412703186570139e-03,2.109707861215419020e-02,1.925362227970117690e-02
-2.710144341411858948e-02,4.716045393422112209e-02,-8.033379584202081369e-02
3.595271325674966739e-02,-3.323462265876618582e-02,-1.697617090138618320e-02
-2.999905863093681874e-02,2.826448937439613243e-02,-5.984356431285655503e-02
-7.336804503150090584e-02,-6.630196891143864089e-03,-3.663368643171806965e-02
2.972558702922601520e-02,-5.572933395435750864e-02,-5.969697560511628281e-02
-5.001433450607786074e-02,8.199247639989427905e-02,1.053009523729651203e-02
-3.898116875738049866e-03,-3.046126253287774238e-04,-6.157286915534319893e-02
8.332960000928589517e-02,-2.788417413132196487e-02,1.919774196541942576e-02
-8.387807438879203714e-02,-6.350215141818653375e-02,-7.833095020062919023e-02
6.722957355965743231e-02,-2.361138375776920817e-02,2.002854997500992315e-02
-1.063088923759747308e-03,2.389923767308824512e-02,2.607440430717551660e-02
-7.751373370824096720e-02,-1.909377506874158914e-02,-3.975021227685354708e-02
3.816095909434356892e-02,4.799635380190405559e-02,4.600157070762644212e-02
1.669870281399231382e-02,-1.100154585450923150e-01,1.153623330165027931e-02
5.291551182507051032e-02,-2.464055320975730781e-02,4.371253015292331928e-03
8.144535599097285292e-04,3.094102007054824743e-02,5.342978123398507695e-02
5.036944762110539403e-02,4.259866036963393110e-02,8.521385005864683115e-02
1.150297568214326584e-02,1.658707961412540441e-02,2.390881681830892003e-02
3.218746106212555524e-02,-4.125901495629351323e-03,1.928604504715068432e-02
-2.520543206810274897e-02,2.058032679774846052e-02,-3.522372079729781114e-02
4.825334133929801150e-02,1.399286423954478747e-02,2.068592080704965974e-02
-6.573184121960483524e-03,-1.563822241406073385e-02,-3.174965108009965981e-02
-2.601699652005808397e-02,-7.019034787304352652e-02,-1.374732665571230805e-02
-1.101567990391774318e-02,-5.353886661038979172e-02,1.358556198890886919e-02
4.898302893029488070e-02,5.133677243186092476e-02,-4.124193569355369404e-02
2.248445289525352055e-04,2.585034482504529330e-02,-3.603027392717718380e-02
7.883350294151110493e-03,-1.146457542915640775e-02,8.791306450476328582e-02
-3.237348807932113881e-02,-1.068039513105289821e-02,-6.653729033705915730e-02
4.412988554679820458e-02,2.359084431762685161e-02,-5.517441218348463627e-02
2.225568303951128840e-02,-4.265843860904592472e-02,-2.261706824004141789e-02
-1.373354347261582925e-02,1.114736079851962186e-01,1.730617536640352908e-02
-2.273490150165591653e-02,-5.979336679329506909e-02,-5.599085337871637091e-02
-2.426810654086794181e-02,-3.102684227456863758e-02,6.722260049595529807e-02
-3.057443627510823478e-02,6.499364864390486801e-03,-3.076263852825824457e-02
-5.105038880694841991e-02,1.968263830214739274e-02,6.956982706213900303e-03
7.858426094613993676e-03,-6.819385699267814516e-02,-1.106759138121996416e-01
7.935837314213936566e-02,1.224665567586056963e-01,6.679190765395455476e-02
4.939477549251682087e-02,5.615933288570774951e-03,-6.750664835866519199e-03
2.504301545822579418e-03,1.731413777065806889e-02,1.020074716155231105e-02
6.648632997955079837e-02,9.630293771098186184e-02,-2.785410914390936549e-02
2.805964618038435041e-02,6.338873116453043466e-02,1.490928592936752867e-02
3.045010859818430768e-02,1.422617295696608497e-02,-9.943649285061745627e-03
-4.044968026554619095e-02,-1.183417708341698120e-02,-5.266446530669616904e-02
8.882990697192501284e-02,-2.005678487189719097e-02,3.321609144939758652e-03
-4.480678858152675054e-02,-9.172446920152597244e-03,-3.625980271840651553e-02
-2.214679878186471412e-02,2.925436364783107548e-02,-4.662190980160756809e-02
2.587361492914828573e-02,5.725935748271506615e-02,-5.179053529852643833e-02
2.803915279171113883e-02,1.091392580340921035e-02,-3.392539755662701134e-02
-2.697989730265322808e-02,3.401980924015387403e-02,1.524968822452797169e-02
-2.075156584053387820e-02,-9.867446597316750084e-03,-1.041923423770720709e-03
3.658756633383019458e-02,-2.937234768813474020e-02,4.669233299545065552e-02
7.486117098168636186e-02,1.891510571635179406e-03,7.221793181790045479e-02
-2.530317959221934851e-02,2.146753886821080055e-03,-4.829356195418677694e-02
4.784564882669263552e-02,7.989046475837120742e-02,-6.162485116556639005e-03
3.280002013812368528e-02,-7.003507249365294174e-02,-3.046526937395342693e-03
5.525472941022074869e-02,5.514170084214055356e-02,8.532422950227556155e-04
1.755129288032325485e-02,-8.914481698971580409e-03,-1.486596502609807864e-02
-1.330702569503840749e-01,-6.774277798305813891e-02,-3.501329856167859772e-02
1.258590370822094441e-02,-1.653508753319261199e-02,-4.072707700874862551e-03
-2.913990775745411467e-03,3.859376953349852313e-02,-2.211004164277933365e-02
8.274430297008450105e-03,5.174123454745693795e-02,-4.560715075448789485e-02
-2.401492141126425339e-02,4.353824828923983509e-02,-6.221064613997485254e-02
8.350383341586692376e-02,-1.119083637931050403e-02,5.364233176933258518e-02
-8.691273540872818115e-02,-2.641433323238440503e-02,-6.196612219389456035e-03
2.686658529518211325e-02,2.388596703136612251e-02,9.378049921874134819e-04
8.674500946027337289e-02,-1.075829766132822829e-02,5.854681895049214900e-03
-5.219451159982848448e-02,-1.771500640633208445e-02,-7.015366416594782939e-02
5.378459875556638320e-02,-3.226147755855588578e-02,2.677690662756056911e-02
4.385563898756002915e-02,-3.037693580836250962e-02,6.282310487439252134e-02
1.497598097782180601e-02,-8.354764298825920199e-02,-4.099003042200478897e-02
8.690393044186886171e-03,1.588582482449442737e-02,2.543821163613294370e-02
-3.225779835370847382e-03,-6.658527222503816956e-02,1.349380227123373951e-02
6.722342949753376713e-03,5.459183470013579537e-02,-8.027052553945526400e-03
2.085569358407956056e-02,-4.465095291123327009e-02,5.578889641769772811e-04
3.185931952545779933e-02,-1.481434222075054576e-02,-7.177238514980192885e-02
9.286977091810894036e-02,-2.507108442113811786e-02,2.237702541686333729e-02
-1.977238055180020188e-02,3.753811201729029962e-02,-4.419138447452655195e-03
1.582087378156803864e-02,-3.958684236962099062e-02,-8.335054121151338688e-03
7.029704790368106193e-02,-3.552359753229239470e-02,4.882281162452895007e-02
-3.562796975741742977e-02,-3.300114926783100089e-02,-4.501768254164600566e-03
2.728223415491809467e-02,-8.891071875013607795e-02,-6.874091398299349287e-02
-1.494148627860191446e-02,3.268535476774818427e-02,-5.812575024779480237e-02
1.442185297414000887e-02,-5.251032974635679550e-03,3.820669451828381802e-02
-1.281838472832951686e-02,-9.229096766532642049e-04,4.667169931179802889e-02
2.188990276557345113e-02,6.613165646978066449e-03,-8.737006729963293222e-03
9.011196280221937804e-02,-2.046073532636858219e-02,5.412858558169722500e-02
-1.626868663978915663e-02,-4.151339989151574261e-02,-2.324434599184343336e-02
1.846903854389650435e-02,-8.083257644396991959e-02,1.009362997725075928e-02
6.102304224210360756e-02,-1.527737264496730786e-02,7.564502773623070844e-03
2.873137184139070571e-02,-3.546395103005378635e-02,-3.182733312606377679e-02
6.726284664817619441e-02,5.075176113947963558e-02,3.134559519590823101e-02
4.450398349021186112e-02,9.277748045727098047e-03,-8.890022786965172744e-03
4.084721770793682538e-02,7.351098341637761491e-02,-6.677223024555183767e-03
5.693794353804999125e-02,3.507349102841463701e-02,8.384035440864008593e-02
1.999256089165028782e-02,7.914760995663989995e-02,-7.019906989727858759e-02
1.098208771329747292e-02,3.433506226036104475e-02,3.856650407530585328e-02
7.123029170307559194e-03,6.093879800669312063e-02,5.788507840506613988e-02
-1.995488658909315080e-02,-2.622264045653747641e-02,2.681606776204939133e-02
-3.934892106049052429e-02,4.887422888639907960e-04,-2.402044726693067928e-02
3.995791007644412807e-02,2.175706517586680627e-02,-1.688641455495368260e-02
1.927362657583898270e-02,-1.840906030720934269e-02,6.399605518767892409e-02
7.603605963941341417e-02,4.911094396206411826e-03,2.533978367293505951e-02
6.739847987834307608e-02,-2.005024687757976307e-02,1.845425762168583644e-02
-5.360673204050728224e-02,-3.313824449943182648e-02,-3.251192320668205155e-02
5.549490765778542813e-03,1.050592439153020807e-01,-6.173981709509538535e-02
5.142905736479917028e-02,-2.190163811352539500e-02,-7.219545785991774225e-03
-7.228190485803667048e-03,-2.290658216241516117e-03,-1.231024078161341122e-02
-2.529365744459682874e-02,9.201352107961665097e-03,5.520294740441786252e-03
-1.057803058735141619e-02,4.366372887010806086e-02,7.687910517795099388e-03
-4.650098894069389782e-02,-3.075666647971192838e-02,-1.084421700276400752e-02
-6.512250436194201228e-03,-5.257832737265899850e-03,1.459034340439470563e-02
-2.792173260854481295e-02,2.721142794871294832e-03,1.121692748150547895e-03
-1.730593395284188776e-02,-1.155209961960441782e-03,2.682264696842081436e-02
1.552726090704603309e-02,9.252326664843053827e-02,-4.314484016969763469e-02
3.118224930755606958e-02,-6.045735656653727919e-02,3.278823914562289249e-02
4.531166978171001503e-02,-1.154088546445568644e-02,4.825091546487993155e-02
1.969359317385772912e-02,-4.683770625770988100e-02,-8.500782991962687468e-03
-2.082906424484872940e-02,3.348077166680719224e-03,-4.972588810890363545e-03
9.336149173583734376e-03,-3.205454898878282860e-02,8.672782480640347375e-03
3.103580547529974365e-02,-4.431723336979031397e-02,2.024958612159869983e-02
1.321254789486027252e-02,-5.152198702935738978e-02,-6.049555663035798003e-02
-2.320409417320113202e-02,8.990394322578476594e-02,3.420495060311335572e-02
-1.338981451009207679e-01,-3.745904449532762304e-02,-6.756606961324960678e-03
7.911134444686147849e-02,-6.194965724633769155e-02,3.657727369581032645e-02
3.040889333190811145e-02,-3.361600830759960135e-02,-1.044743514733743189e-02
-2.190651260483612514e-02,-5.154538701174730952e-02,-3.058449511416295660e-02
-1.770391361988723350e-02,1.052846079195733364e-01,2.366236050351925441e-02
-1.065105149054039642e-02,4.937691973716237109e-03,-3.649388310937999591e-02
3.864625120801609692e-02,-8.414080820313800391e-02,-2.841089502897159447e-02
2.813080225189886971e-02,2.789679534606908859e-02,-7.512985604737422484e-04
-6.183629112787095150e-02,-1.739738566724874369e-02,4.220441051287830009e-03
-5.766251779685360734e-02,-1.197843931024575315e-02,-2.368968422571602131e-02
5.271768947428383256e-02,9.055682095038781326e-03,3.532599537781550697e-02
2.871874743612059383e-02,5.056102108977504617e-02,7.239998258808436060e-02
-4.847111109759198733e-02,5.819911874418765355e-03,-8.288209673221889895e-02
3.674610007273512724e-02,-3.576178302966427636e-02,3.670760344293119010e-02
1.724858852926269446e-03,3.295928946370278723e-02,-1.562655188044687060e-02
1.042641603491047120e-02,9.376868353152417040e-03,9.239878005857050935e-03
2.307136825830636423e-02,4.251574654726872349e-02,1.269697143957745043e-02
-1.523921824315560211e-02,-7.846525498462046666e-02,3.276043426793751046e-02
-1.445107453701158229e-02,-1.017805412833982549e-02,-6.616512466596889686e-02
5.421816645982695249e-02,-2.292707644166050093e-02,-4.674126261862429112e-03
3.935462303948180501e-02,-1.945489205059629939e-02,-7.888218934283772535e-03
1.624401551215518685e-02,-1.491456468338436467e-02,-1.072037119638453821e-02
2.915045523510046907e-02,1.010330561168278074e-02,-1.155933699002430481e-01
1.954801423397961244e-02,4.372131903375262724e-02,4.985465490080770445e-02
-8.372584734414284524e-02,-3.369167432549589197e-02,-3.690571445717687193e-02
2.059368522163322786e-03,-1.242377080176140271e-02,-8.140254985455813719e-03
-6.154584863075430318e-02,3.181636738464239250e-02,2.796256927039382847e-02
3.581164579715310353e-02,3.769367522942528720e-02,1.978828825937343355e-02
-1.945162813649929309e-02,3.102215806050036620e-02,4.826800697124598860e-02
2.084112406341159102e-02,-7.765125649010337118e-03,2.800955381676370568e-03
-2.520329365910200028e-02,4.623096191220870538e-02,-1.839172441116500994e-03
3.866983311374183607e-02,-3.402780092259576755e-02,-8.411897316547187978e-04
3.972606139020063744e-03,-2.264131405387960299e-04,4.830491395425702723e-03
2.929058603055572155e-02,2.038220261326248103e-02,3.120618891837372705e-02
-2.920278468916181341e-02,3.642400211336962318e-02,3.047469990620401206e-02
4.923682139892594442e-03,-2.074201810661210899e-02,6.675426514084589757e-02
4.676489846463621758e-02,-4.484443263223458764e-02,1.596638293619839430e-02
2.072869499958917075e-02,5.256897157301346213e-02,4.914009625551215427e-02
-2.896930374819909476e-02,4.496631190408417744e-02,-2.104375572186343440e-02
-4.065060553771739082e-02,3.434312876901667033e-02,-5.079291949832538677e-03
1.074035600075002456e-02,-4.364410210881048552e-02,6.053545261138203746e-04
3.856018535020526439e-02,2.455678205118008023e-02,1.457251408961859071e-03
1.155338754685051456e-01,3.135338008785738123e-02,-5.123838482259721223e-03
2.905566753578298078e-02,-2.317744775658683865e-02,-8.737441523211495267e-03
-5.983025091868057060e-02,-3.330880183722866733e-02,8.688034516069826491e-03
1.869799466981468539e-02,-3.118779818840957188e-02,-4.579245485916787206e-02
5.438078205108228674e-02,-1.981414058916408649e-02,-8.083096075256783475e-02
-2.297054178682155640e-02,-9.944227239631659929e-03,1.846329907618274660e-02
-4.031094352534235134e-03,4.256813909749399688e-02,4.059971103374829249e-02
-1.401051875189902006e-02,-5.863100406965501832e-02,-4.555776442275655952e-02
1.215973631055742021e-01,1.137271964426726789e-02,1.948295852009402154e-02
-5.620294053614747695e-03,-2.209590183612670372e-02,2.074157252445627680e-02
4.134567163900485648e-02,-4.813879614503379506e-02,-3.614696200363147482e-02
-6.060270066201580569e-02,8.762073911314012531e-02,-3.827861812281941473e-02
2.561589323472505259e-02,5.144970020656491200e-02,2.462086877348427377e-02
-4.555856299088542941e-04,7.058199050394490907e-03,-6.989131373690792015e-02
-6.006046906736202395e-02,-1.136216024625270708e-02,-4.895536062126616683e-02
1.175753004129863506e-02,2.070088235518323383e-02,-8.820925533830265008e-02
3.053240609137138073e-02,-3.181029361903902480e-02,-2.048785518296803235e-02
2.078242852505559138e-02,-1.657630044311983811e-02,-3.626992490122837171e-02
-2.634872134141977643e-02,-8.945094187912179529e-03,-3.874074053113050337e-02
-7.121179353997378336e-03,-1.777463680678255040e-02,2.693492755805771549e-02
-4.881410926988337395e-02,4.309714546947107650e-02,2.509002160919203417e-02
1.404292293417933740e-02,-7.500666509207834509e-02,4.836250220026491742e-02
-6.177985929104490292e-02,3.433972401855319573e-02,-4.003284891868044704e-02
-1.808314737760069457e-02,5.816438504980536717e-02,-4.845213029538264320e-03
-2.204563016504035994e-02,-6.647353817532429543e-02,6.812251036811181604e-02
-4.772226975918732877e-02,5.382906801081038112e-02,1.426679915302366160e-02
7.440807758740089484e-02,-5.520611339893941039e-03,5.208894041465194497e-02
2.136027205577861396e-02,-4.864163155612374022e-03,2.512956247830326964e-02
3.231963623480311673e-03,-3.238211388988065237e-02,-1.014048124795187064e-02
5.239090662678448640e-02,2.162371479663870101e-05,2.400049756327617481e-02
2.548578487065971537e-02,9.585995012997563028e-03,9.131927006533670926e-03
4.858963821444575726e-02,9.881919321471997752e-02,-2.241328489403683621e-02
3.878913096436275437e-02,-5.705008179422834357e-03,-7.007719583243596576e-03
-2.565575399852070004e-02,2.995790292796005408e-02,-5.725842628528189648e-02
-3.569126639559838665e-02,3.381963013367036280e-02,-1.994997931726558149e-02
5.745574867816314463e-02,4.016076750529570805e-02,4.249678374591791402e-02
-4.165320202283702422e-02,4.140398271585913476e-02,2.807195238882074714e-02
-2.006506518032777700e-02,4.797577594608329332e-02,7.995812492684234440e-02
-6.096048094962806113e-02,6.059205723837167955e-03,4.234124610770843150e-02
1.095545313132411935e-01,1.377912621228850713e-02,-6.485737521775190861e-02
5.041784419442749826e-02,3.161630614849543909e-04,-4.138278215370541288e-03
-1.585995855272924124e-02,-3.197356180787109398e-02,-6.121510606284736970e-03
8.793152976869732240e-02,-4.338002663445470614e-02,1.349963793492761979e-02
2.630738825956051470e-03,-1.190309944130675405e-03,1.182093748433730128e-02
1.741749019645674745e-02,-2.102697161065406745e-02,-2.343614116688666135e-02
8.192676003689454423e-02,4.928400784705692927e-02,5.232673000554295684e-02
-9.239642396596917800e-03,2.034952847941310511e-03,-1.070110760026930785e-01
-1.453546137887268101e-02,-5.065947268392872321e-02,1.376540087804700024e-02
3.835436702974977501e-03,3.066919075764981684e-02,3.052567564427503821e-02
5.018065559114340962e-02,-2.203577904887010774e-02,-2.154267346919588530e-02
-5.755312426697301031e-02,-2.285574118809065650e-02,1.085150678192796231e-01
-2.452958879229787115e-02,-6.455162025057956110e-02,2.545881947211866073e-03
-2.007644580412833168e-02,-2.103168721055801230e-02,-2.813560524739561197e-02
9.075896099590918809e-03,3.431431769187732322e-02,-1.310359344206133390e-02
-6.282523901616050843e-02,4.082988447204100729e-02,5.632532629473704922e-02
1.225489924228914847e-02,5.683414794745790533e-02,9.486068168552984348e-03
-1.748415763485242427e-02,1.690911858186718974e-03,2.762317979742246257e-02
-2.156684806969980713e-03,3.443180262018604582e-02,1.398094250380686743e-02
4.330694874567742048e-02,-6.876013690241115396e-03,3.287004719673135376e-03
4.394982034527873671e-02,4.237969704881062311e-02,2.630484337859053529e-02
4.123379906548948343e-02,2.451872371751867216e-02,-1.675216167744030329e-02
-1.103870335094709887e-01,-1.069891739280641116e-02,7.468206870572426104e-02
2.399533314256896074e-02,4.548476270541801716e-03,3.336010847534548462e-02
-3.407949087435588331e-02,-3.721511794825022035e-02,3.875208565394126781e-02
4.679962846042890617e-02,6.701557999671139618e-03,-5.579731013699939374e-02
5.137324569151131143e-02,8.048834938907466208e-02,1.100595654796084066e-02
5.092036993502599418e-02,-4.497953516556382758e-02,-4.553562345303655175e-03
9.088192243228826461e-02,2.149216891857400058e-02,4.573401536004902124e-02
2.888307464325456930e-02,2.112679380881119645e-02,-2.483268775249245983e-02
8.563706823657653289e-02,9.387445677930619098e-03,-2.822967547315774137e-02
-2.813360844025121141e-02,2.464862244175277523e-02,-5.080355258740709007e-02
-2.479058180266670991e-02,3.036598718127329899e-02,-6.757410234660670388e-03
4.197983920088485532e-02,-9.561332248157096078e-03,3.945249855580371806e-02
2.087181252616966340e-02,-7.562710110792130076e-03,1.266738633217966495e-02
4.934421487348247815e-02,2.202898440645555123e-02,3.408394043207105262e-02
1.086325176452828528e-02,-2.568627990911503435e-03,5.469415321392579604e-02
6.506089538429513097e-02,-7.242837819858898019e-03,-2.783171943882685961e-04
-3.915070385460979463e-02,8.969244267700784978e-02,-3.615068255837398936e-02
4.032825050827982399e-02,5.258041144371350395e-02,8.812592568586237940e-04
3.187686030484555844e-02,3.704612443368530961e-02,-1.550556698288835071e-02
-1.300884882018510554e-02,3.490241313304904419e-02,-8.010834488554757077e-03
2.700989391422785324e-02,3.962341945937683518e-02,-4.642724424330599980e-02
-1.845099140481719704e-02,-1.002918349113133233e-02,4.877900193664841400e-02
2.497059787595938204e-02,5.271891210671585115e-02,-2.286840118241467365e-02
6.322691541884346844e-02,-1.742595069668710639e-02,2.304990233861626756e-02
3.972562142110972611e-02,1.596568015276616029e-02,-1.014406676212382535e-01
-5.219507121694582545e-04,6.902355074083139919e-02,7.744183209242035126e-02
-3.766247763529889658e-02,6.220429623345947318e-02,-2.494676337108821251e-02
-3.856989533716973298e-03,-8.216713071904540103e-03,9.036369516689953668e-03
-2.653650816000371199e-02,5.340457714996955235e-02,3.961710360068204650e-02
1.957320635728889563e-02,2.040284701613481744e-02,-7.931181979762018386e-02
2.129058649936724744e-03,2.959243570506814650e-02,1.574717352537196094e-02
5.308553472616873298e-02,-2.255339618092127435e-02,1.322837281718207240e-02
-1.317667283345301879e-02,6.728611254917238327e-02,2.639253783757727553e-02
-2.464628707514054592e-02,1.275071729815527299e-02,4.650554798302979770e-02
1.492227263276173742e-02,-9.962740101599235065e-02,8.736845606167276124e-03
4.442145464620363832e-02,-1.203090899559911865e-02,-1.463977545960638837e-02
7.065883476609209797e-03,1.528832312031611768e-02,-1.660420056749524823e-02
-1.982151557819185339e-02,-4.362728721327418374e-02,2.462547740597557933e-02
8.701213138611475773e-03,-1.669171231126008806e-02,-1.335822191136215933e-02
2.239274733240771004e-02,6.650424360865776763e-02,1.543258033228851051e-02
-2.299942894592356055e-02,1.884971982698985249e-02,-7.785579411095774893e-02
-1.441255673394165569e-02,-1.427285672348901739e-02,7.671960281368268852e-02
-3.738057612857267203e-02,3.393951329904029701e-02,-4.008472872027704637e-02
5.218036915924319924e-02,-1.345974860032435501e-02,-3.144033069424244375e-02
3.881840260653644792e-02,-3.606072282602196255e-02,-3.133222519276342155e-02
4.551496165938032773e-02,-1.647561381568015196e-02,4.284516183152008856e-02
9.856490045261338817e-02,4.720096695858200936e-02,-1.000333463223892182e-02
-1.953052366326614789e-02,5.742306214864456582e-02,-6.667512192379060343e-02
-4.515442488008959698e-02,-6.522035709307749674e-02,-7.292973245035760943e-02
-1.218866047329384902e-02,-2.856447993348161518e-02,-4.907566620752714520e-02
-4.775664360328887859e-02,2.405882012616704022e-02,1.087748711287718321e-02
1.078564941065344868e-01,4.906220489156840059e-02,-6.579015496717079484e-03
1.482990156310535525e-02,-4.258295611635795619e-02,-1.467267002616549562e-02
-4.168764670042534454e-02,-7.746520232664488859e-02,-2.336143622189424188e-02
2.428325874639334497e-02,2.527515048186794108e-02,1.531517742735078076e-02
2.796988443290370982e-02,-8.233948943534554138e-04,-6.102392290287030757e-02
-2.776979088698192100e-02,8.077331705934513717e-02,-3.554117648707155047e-02
-2.850025130035248322e-02,6.303279955358945252e-02,2.986162440258817441e-02
3.280753577592455950e-02,-3.306789139623241003e-02,-3.228746864544991546e-02
3.244765114630901448e-02,-3.005127364467762713e-02,2.944369138696008303e-02
-2.623352797447036158e-02,-7.254044528302429351e-02,1.945341768928703649e-03
-1.709397992732209978e-02,1.306375971311975540e-02,2.162929605540271204e-03
-4.685768384914375251e-02,4.099608961790956259e-04,-1.666290566170497423e-02
5.806357286765638503e-02,3.074731806454041386e-02,4.952097466795243874e-02
-1.845816578164838004e-02,-1.948503727772224817e-02,-5.675573981430319381e-02
2.530977817800253438e-02,7.000679615092449126e-02,-8.327436920767182504e-02
2.595268601483022297e-02,1.546684343133286448e-02,-1.116607807604308271e-02
1.813888298583206165e-03,-2.786459164597170080e-02,-3.647924405229861777e-02
6.425579015244026193e-02,-5.181181468853788240e-03,5.519259519543301407e-02
-4.234412111556418168e-02,5.608916751024604734e-03,1.887534685716238305e-03
8.231297414750668451e-02,-6.337806973268884925e-02,8.174477489650647591e-03
-1.205990455361605554e-02,9.209330740602454310e-03,6.958592133030781779e-02
-4.016748880151759654e-02,-2.481511012395515650e-02,1.880686854899534313e-02
1.815688533650278505e-02,4.266520557421240450e-02,4.784038034391644573e-02
-5.244175461751340167e-02,3.407062889708052655e-02,5.006359300195432210e-02
-3.935240044490741608e-04,7.326256803510834692e-02,2.850288492352307315e-02
-4.077149681051445151e-02,4.404232831599846909e-02,6.069338376342850450e-02
2.859786347999795225e-02,-8.440337651016596721e-02,-1.983049347826959519e-02
-1.900221149415484354e-02,3.846134790324247377e-02,-4.390665092460029756e-02
-7.426759180201861037e-03,4.236501985063504880e-03,-1.455981161817398138e-02
-5.213937802079225692e-02,2.655851025917752711e-02,1.642461635978835141e-02
8.360166126032117506e-02,-3.017102809931520094e-02,-3.616471173616499918e-02
-3.723934689446761065e-02,4.394196327006768404e-03,-3.302154151555689726e-02
3.067409047763138344e-02,3.812118267673865468e-02,1.576312184251168862e-03
5.967241319365309410e-02,-1.616618572385256428e-02,-6.566259576701265199e-02
-6.641826471725973367e-03,4.740668803177708335e-02,5.256408649721693721e-02
6.020642729490075645e-03,1.546158460081378631e-02,-1.939571859119112313e-02
-4.646566595215083362e-02,-5.529229094255320304e-02,-1.083084792781525280e-02
8.441142990427757606e-03,-2.294706083713380154e-02,-2.352390843437215592e-02
2.008104917383601515e-02,3.012822799961499542e-02,3.682659562397182923e-02
6.922869726136132718e-02,-5.153532140576644327e-02,9.231308180545227948e-02
-8.141664324032278632e-02,-3.059035587570339051e-03,-2.234571444928053555e-02
3.533487259048306330e-03,-6.527810786494936228e-03,2.532927371628892685e-02
4.881724778254201147e-02,1.020265871752437381e-01,1.671998773635833407e-02
1.746302446074900552e-02,1.596985890386480589e-02,5.681727449686662518e-02
-9.977070701505783359e-03,5.652360512013842458e-02,-9.119108936310210689e-03
-4.959974799622342105e-03,3.452450641753124910e-02,3.116614044585514984e-02
-3.337461177624508057e-02,4.967927934331388407e-02,-6.106324020659464891e-02
3.259098300044016572e-02,-4.486457605051696884e-02,3.956829767455843222e-02
7.562163951648753768e-02,1.231478762473481314e-02,7.664723796392436395e-02
-3.119673548693309081e-02,-5.027388451193973932e-04,7.779434838504779501e-03
3.250994783934715165e-02,-8.733297537829991589e-03,8.452435254170222526e-04
9.506906992953254422e-04,5.357986672684821733e-02,3.341086981474590545e-02
6.697579372722276166e-03,7.137317755710245737e-02,2.944199614028971193e-02
3.136633359488336797e-02,-4.311245126441639458e-02,-2.184129853294813906e-02
-2.743074061596147487e-02,7.865622750111733730e-02,8.730236033196414960e-03
-3.466317393156729838e-03,6.549340627572260154e-02,5.096989112646837378e-02
8.209608847904058260e-02,-1.426232876532909644e-02,3.220527575024530881e-02
3.954426477753979208e-02,-1.317371001272873987e-02,-1.380502618363421696e-02
6.392696457387330930e-03,-3.199017640557463155e-03,7.823467293827573998e-03
4.267511796098986260e-02,-2.695243467744128096e-02,4.020475512150113902e-03
1.833824874857182055e-02,-2.123051150265636150e-02,2.471679875478261998e-02
-1.493899550646546857e-02,9.771178193824905933e-03,3.490789822872959747e-02
2.313695376977377774e-02,3.034834831553546216e-03,1.955906733073903281e-02
1.141013884397913819e-01,1.940115907577340607e-02,-4.683434865442320121e-04
2.027354746397349791e-02,-5.407298359678356509e-02,-1.707955348452660713e-02
5.880228303633715757e-03,9.734964609690654330e-03,3.601944099777745073e-02
4.598424590793233346e-02,-6.536617671844123512e-02,-2.547501830646829724e-04
-3.182361709408233069e-02,7.386084522579470374e-03,1.013477029767848731e-01
-3.532992025808360387e-02,2.222282045508030754e-02,-2.895977931815323092e-02
-6.980498287139989648e-04,-3.070032673807512880e-02,-4.901828396897667944e-02
4.077786410472454548e-03,-7.409497538254970761e-02,-7.728267844749284188e-02
7.806244242291780766e-02,4.104939664591981258e-02,-5.550667084185705036e-02
3.574778774195760955e-02,4.664250024929084137e-02,-6.847340636966418870e-02
-3.826697325137800448e-02,2.758102565464404265e-04,-9.816410714408858873e-02
-3.043152503084818952e-03,1.323638213498576181e-02,1.339906112506992087e-03
-3.737409681045068127e-02,-1.461573085876881686e-02,1.891532296554460091e-02
-8.916336746640174393e-02,7.074010228442811909e-02,3.984906788767367952e-02
3.143134012112257236e-02,1.147811458467675079e-02,-4.633487016084802262e-02
1.719682739712526803e-02,-1.197316065853664714e-02,-5.304494125819515099e-02
7.574985741873675738e-02,1.605522657589526087e-02,-3.544089316840560999e-02
5.457995096500051213e-02,4.248972333049583217e-02,-6.523729097296320986e-03
5.810437896784914624e-02,1.059010106300664958e-02,1.643843463824183572e-03
4.881141224577419807e-02,9.463841948648811161e-03,-1.770488341347215694e-02
-3.207300392330597605e-02,3.999442013551189612e-02,-2.436144346443316205e-02
-5.870027216169728529e-02,-3.955457208085621113e-04,-7.851561110184258896e-02
1.924874117030739296e-02,-7.020677946295493521e-02,-4.118225473796564839e-02
5.146779817217017605e-02,-2.015262199718279371e-02,-6.354450678573399713e-04
-1.420882784882930745e-02,-2.889886288887524943e-04,1.710177649640214764e-02
-1.837799634694460213e-02,-2.923714961857649952e-02,1.980583513421668718e-02
1.789016482678721168e-02,2.692437750026059617e-02,1.208765165002428088e-01
6.495027972889932943e-02,-4.119180998010380998e-03,-2.649499580053497547e-02
-1.280234897874135116e-04,-4.978748854997756823e-02,3.191827318616677258e-03
3.258950085197619140e-02,-2.929546932626093253e-02,7.668641774925351318e-02
4.150401832907107957e-02,8.212923064148451580e-02,2.525098833689756739e-02
-2.890754011414824534e-02,1.733581315195708780e-02,3.330684726322159089e-02
7.066179544364607767e-02,7.027692604780066965e-02,2.661706812378483722e-02
-3.011243690685809146e-02,-5.858237150827416695e-02,-3.603099463113285800e-02
8.715938353528654425e-02,6.397530336030828046e-02,-1.502063585886206747e-02
6.017411677697660083e-02,-1.572649607385486967e-02,-9.814975603933490111e-02
1.621318914935244646e-02,-1.509884971679126015e-03,1.564829652568804075e-02
-7.735255328242414061e-03,4.327379169193020653e-02,-2.394562441691295077e-02
2.385420944458994594e-02,-1.159750027081325324e-01,1.789095972087586736e-02
2.483807733621298114e-02,-3.668031610451741309e-02,-2.599396887333223563e-02
4.335747553062275356e-02,-1.112212726853310102e-02,-2.058917831808277591e-03
6.609757472237130782e-02,4.149605865077728856e-02,2.785573574359793622e-02
3.593037506229852796e-02,-2.386704994431556801e-02,-5.671767143046352322e-02
7.272704891218222112e-02,-1.158495285404482697e-02,-1.357064968080212014e-02
-3.668561352224597016e-03,-4.252917880496379088e-02,-1.815574749925220541e-02
2.531644941329791107e-02,-6.611217748297058827e-02,-6.529226953375716867e-03
3.644574836037806076e-02,-4.695146144091622703e-02,9.583327130088985582e-03
5.209473956147412516e-02,2.094554866294788889e-02,3.356821380534626836e-02
7.001004611125287436e-03,-6.673061051925872900e-02,2.405527263554041104e-02
-2.685627123923675641e-02,-4.759017879690799480e-02,-6.025075678288249054e-02
4.997033449104101681e-03,-1.114090605305795428e-01,1.845731640890197964e-02
-3.694904058611112735e-02,4.472584252612920447e-02,-2.104898819007228802e-03
-2.080252494980951942e-03,7.896009884560149794e-03,-3.869280440216974620e-02
-6.395439505039883510e-02,6.278996708400298721e-02,-1.188866678016578700e-02
-8.129498792013717390e-03,4.390702423434059143e-02,3.112567997821745827e-02
-1.629104986966479693e-02,-2.004753519366534939e-02,1.684995662399393218e-02
6.328907703812363360e-03,7.945249101797741131e-02,7.210816568329370124e-02
-3.146045468520059646e-02,8.742589478949124027e-02,4.896550259600900012e-02
-3.073196859818942694e-02,-3.593539454164292740e-02,2.298620122408170582e-02
1.229883981006360712e-02,9.052137668272688953e-02,1.855668126149181973e-02
5.357772261679338843e-02,-5.493007829107759282e-03,-6.350847356981484913e-03
8.584054186646816742e-02,3.685997352294113905e-02,2.081682248790066303e-02
2.158713755508259724e-02,-1.758902840679056612e-02,5.078260407717422042e-02
-5.201435591892054899e-02,-4.940620874653034629e-03,1.061317237073105928e-02
-4.601785959562868997e-03,1.779143204883547325e-02,-2.179257417939888669e-02
-2.066474009731535111e-02,6.583299600154794706e-02,-7.960645863180584869e-03
2.128192365623932450e-02,2.107001331321366883e-02,1.951061013763190355e-02
-5.227433137338442087e-02,2.286788736276319095e-02,2.651451205614361803e-02
-4.169439113585298980e-04,-2.048759399872041032e-02,-3.104309710145033638e-02
2.455054026075265128e-02,8.230975474539085901e-02,-8.240481292423228188e-02
-8.279000331571514937e-03,8.228885578190757444e-03,4.943140749403465012e-02
8.220257429353951609e-03,4.916594979049251912e-02,-2.626502349767858083e-02
3.593605410909959420e-03,3.810859514189381819e-02,-3.457151864433024441e-02
3.930248570852669376e-02,1.806554366776461432e-02,3.714181963929421085e-03
-1.663712326092572566e-02,-3.651740206498337027e-02,-1.458343759086200633e-02
-1.059874443895508951e-02,-3.512235390731710538e-02,-5.124010568086318634e-02
-3.353174762423733520e-03,5.542713710510931147e-02,-4.698446036886522181e-02
-8.584677008110799118e-03,-5.853930762278981154e-02,-2.119908479995770076e-02
-7.898871019387765716e-03,-1.595689831391020747e-02,-4.139669710424128714e-03
1.552534739700819032e-02,-2.484928998419115229e-02,3.540901687037798645e-02
7.732472642323002729e-03,1.149193318250076382e-02,4.383191541115961237e-02
2.062506479073850443e-02,2.204964732090597054e-02,4.084493405704640173e-02
1.931106300667764439e-02,4.663689652567203775e-02,-3.809380191424534268e-02
2.279573757745755741e-02,-3.007245770545225252e-02,-6.498467287918629869e-03
7.804215714265415327e-02,9.671038419622432145e-03,1.859211229432253601e-02
2.164291572520211232e-02,-3.751946266640635019e-02,-1.234070646353366274e-02
-5.180584814687723416e-02,-9.217032224784266203e-02,-1.558599696944649310e-02
1.804769809149087828e-02,4.999395715608002944e-02,1.811354067683988364e-02
3.819225357756693418e-02,5.235124911265710140e-02,7.340978942734213697e-02
4.065880597852211675e-02,-4.153441451106057447e-02,1.455387870407634336e-02
2.588208977489470097e-02,5.894439673932804977e-03,7.442999259570814985e-02
-2.141437660213624597e-02,1.181783959757015841e-02,2.498385598395738358e-02
7.858145054927952178e-02,-5.665382076421520210e-03,-3.091637731527927674e-02
-1.344360147248690497e-02,-3.819539621656384276e-02,1.226125868859108750e-02
-2.022885007431431213e-03,3.929733547901424068e-02,1.549974778131986419e-02
-7.098215827967409297e-02,-2.963143827332364189e-03,7.666218276556076468e-03
5.729793529488121095e-02,1.161583981527014413e-02,-2.139014605626252119e-02
3.167732274739046977e-03,-2.868716684522595525e-02,3.114177803309042120e-02
3.093095429594179893e-02,-3.243488137385427961e-02,3.317458377389761320e-02
-5.580782795427611381e-02,-2.076589552885374848e-02,7.425016684089498498e-02
-1.769575576180588972e-02,-5.736040462290059594e-02,-1.039327203252915222e-01
-1.657809230185759361e-02,-2.754155075363377489e-02,-2.661864857757904185e-02
3.532261575624223021e-02,2.333797674832606070e-02,2.439491326765963822e-02
-1.143560478516734633e-02,5.073570607958000078e-02,-6.445222768015763937e-02
1.861531260785863687e-02,-7.090274307035218659e-02,5.941630581732365232e-03
2.395758540443201044e-03,3.088763650607766198e-02,1.410604699860915079e-03
9.559467012774559500e-03,4.198988442219599854e-02,6.759317769187321405e-03
-5.760122397486867191e-02,-5.618287802124211257e-03,-6.597409536823660436e-02
6.506351060524358590e-03,-5.743796485445656907e-02,-6.855724266808058132e-02
1.354256020910560819e-02,1.068330499753929880e-02,1.376249163847986269e-02
-5.065832644300857085e-02,1.247688389231605723e-02,-1.817865138328546640e-02
-1.281687660077343235e-02,3.247663423119135501e-02,-2.248488363639760540e-02
-3.324825278888411673e-02,-1.070653028200845361e-02,-3.252108145893121451e-03
-2.951958577453052054e-02,5.541633063263038533e-02,5.938297744445149122e-03
1.100726610082068506e-02,3.073137650285560907e-02,7.378091254228927656e-03
-6.263588248964509220e-02,6.949482508633253453e-02,-2.383978886227805863e-02
2.095980191103113607e-02,-2.885220108392136384e-02,-1.490454023688184311e-02
6.670898534692606963e-02,-5.371573611739838272e-02,-2.458282732123537664e-02
-1.025079214263193046e-02,-2.268344351604492312e-03,1.025335658646583589e-02
-5.656534294900426169e-02,-2.627371183980285393e-02,-4.699949541213205989e-02
-4.755071940578120548e-02,-1.811363069625409813e-02,1.736424796134370188e-02
-5.392084782854902197e-02,7.617995209502395615e-02,5.582705238475420273e-03
3.920919333428085629e-02,-5.946963696275204582e-03,-3.963020730162302580e-02
3.602072598529914432e-02,2.099150822561029334e-02,2.684513551549717533e-02
6.426677643335919690e-03,5.972918631875615697e-02,8.146569048478404657e-03
-1.964789510859711250e-02,2.654956402679067504e-02,1.853766748674096423e-02
-6.604579859275924898e-03,-1.498268295785043849e-02,3.412023787654559770e-02
-1.483956674720281477e-01,1.090476778656763492e-02,-3.763525681923793331e-02
5.222869128018670093e-03,4.563435524796038457e-03,-1.535860202211338649e-02
-5.335926375630799245e-02,-3.745753117802276544e-02,-7.227076162061828180e-02
9.171610781121559974e-03,-1.285187646025004807e-02,-4.283221959450014132e-02
3.709660062483861181e-02,4.690731008307075928e-02,-3.771250922207247495e-03
-7.933042106157575310e-03,-5.178060843127823588e-03,-5.845331417657777945e-02
-8.255861028647037969e-02,3.019266786862499904e-04,7.639802681388638272e-02
9.670264230854137832e-02,-7.449013574132724858e-02,2.991963887270644024e-02
-4.051320919329869791e-02,1.727314739766155557e-02,3.251833373557211186e-03
-2.679822732024537274e-02,5.359123867437207839e-02,-5.377382433191861544e-02
7.439426981293861818e-02,2.972373300774538030e-03,-2.221016850150384775e-02
-3.374011945961007120e-02,-3.489448072657569226e-03,-1.289158120557797049e-02
3.178938373312521076e-02,3.308306468623990054e-02,-1.955551630672278801e-02
2.825391780592202348e-02,-3.095656876175800071e-02,-3.699684064359214791e-02
-3.159601388038091319e-02,4.264178879390764787e-02,-5.712578967384329687e-02
-3.166983956575551793e-03,-7.224398510896175123e-03,1.855404024203615582e-02
4.584885134497656417e-02,2.396279990734072763e-03,-3.770245397444373092e-02
4.519987941222842337e-02,-8.884516150080304375e-02,-3.016751638985884498e-02
-7.790084550511312822e-02,-2.804146469110706599e-02,6.044129831629842242e-02
7.569376544724633338e-02,-4.684503954683618548e-02,-4.064982446973274682e-02
-4.428996257865880706e-03,-4.587757334342174725e-02,7.307418726384205809e-02
-3.144699237870227787e-02,-3.611212331353868404e-02,-6.219654570582917527e-03
4.338665752822461197e-02,1.103733396442038717e-02,5.674586406303512576e-02
-1.759165205751614738e-02,2.060460813213006552e-03,1.874118869156444003e-03
1.094507096048437898e-02,7.338798409683962645e-03,-1.756148385356031197e-02
-4.036221938620214444e-02,2.204977965913161239e-02,3.623237311568559132e-02
8.525660051915920357e-02,1.395518890550286398e-02,-1.573330715167339452e-02
4.289577717987291296e-03,2.118980515037757403e-02,-4.517842002225561961e-03
-2.559012133222606997e-02,-5.828410631142873222e-03,-2.837868453539698862e-04
-3.566511700874391844e-02,2.459833480574458164e-02,-1.142644834985414998e-01
-2.838490799120562888e-02,-5.025826102808073070e-02,-6.108678514254699959e-02
2.369971105945724212e-03,-7.299644026066982004e-03,-9.945677467766934551e-04
2.772530634827028578e-02,-3.191093892498392953e-02,5.726692991279106609e-02
-2.619429808922184993e-02,-4.661994418489467246e-02,2.039098928578288519e-02
6.657434588797300767e-02,5.289440792114914053e-02,-3.145532492918497874e-02
-4.107723124527157960e-02,-1.677370432194600844e-02,5.224871635734198994e-02
3.874552716828084248e-02,-5.596927186998766103e-03,3.688738810962623876e-02
4.070079726838974482e-02,3.238408725105036690e-03,1.297084045780558074e-02
4.849847662146537092e-02,-1.041514886502249368e-02,-2.134519771819795228e-02
6.814061713703864487e-02,2.732392455470277273e-02,7.380239323139205741e-03
-2.149479707758472982e-02,6.102121687839662939e-02,2.980286450257547265e-02
-2.418901053695195549e-02,2.607577025293694728e-02,2.193558565021470549e-02
-2.581517415576782548e-02,-6.635067266526313567e-02,9.230301598666916518e-02
4.206511345155954096e-02,-4.851517156710872386e-02,-9.545400929440528426e-02
7.290553505850833060e-02,3.851166864036861121e-02,3.339203082462049998e-02
1.425857214955052448e-03,-2.354780777147571363e-02,-1.286502092506022418e-02
-7.895293111634789579e-05,-2.078535712932551641e-02,-1.448702303373746586e-02
-9.262874978443576962e-03,-6.161143421939174747e-02,4.239913641823587001e-03
1.899600930928648998e-02,-9.569466516950500545e-02,3.229775379189464384e-03
3.366561745376311227e-02,5.106177498320025460e-02,2.742197473725941845e-02
2.169747279644600874e-02,-2.802165329379259560e-04,-4.328368354374428212e-02
3.608607824036955125e-02,9.133680822588485793e-02,-4.685362413056117295e-03
-4.655133614401909398e-02,7.129006456204037279e-02,-7.112783083492635328e-02
1.298513737268185836e-02,6.586371520901913856e-02,3.301040362503415010e-02
5.016379450454589578e-02,-2.627967056884183625e-02,-2.097129223871158771e-02
-3.295408925105484249e-02,3.890938727779804512e-02,-1.416471672030715674e-02
-1.831993725710851645e-02,-4.736956677708160229e-02,-1.559601388247675371e-02
-6.583566442077577741e-02,3.911988371613362402e-03,4.782959075838466578e-02
-8.784355385510134173e-02,5.531666640534221857e-02,-6.652396313282551987e-02
-4.119294210216505048e-02,5.644041552706693943e-02,-9.192135791514845569e-03
-1.686947028765363801e-02,-2.858820896137445264e-02,2.120289704388352015e-02
-6.123339388197332478e-02,-9.474676522238644275e-03,2.268335067220648635e-02
7.975638732108429607e-02,-2.437017022910668504e-02,5.187169571437368065e-02
9.778319471618097600e-03,-5.346697932744914200e-02,-5.207486815376335780e-03
4.244430793637085642e-02,-2.589635622241272250e-02,-9.430783968609837697e-02
-2.686138797549415466e-02,3.908379218508503672e-02,4.799512167446598476e-02
1.286901741131408691e-02,1.940611873938806811e-02,4.320176263327262650e-02
9.965301320243438732e-03,-5.511261108195324165e-02,-3.318379435115879211e-02
-2.575827307981442757e-02,2.256149578225958782e-02,1.679642163380822353e-02
-5.758734330984319194e-02,-8.623656860490155895e-02,3.524612771769282393e-02
-2.277445460522186521e-02,2.273783353959030890e-02,-1.296817756080963571e-02
-1.157801696633062316e-02,2.722445627750185240e-02,-3.974597680415840883e-02
-1.361832732124950221e-02,5.436228455367572709e-02,-2.059780517595202060e-02
2.942008732083078310e-02,-1.152542003255747037e-02,2.156754456067579845e-02
-1.209510406686953830e-02,-2.956361362695440059e-02,-3.036039587731715131e-02
-5.504083362957747083e-02,-3.389586719483120292e-02,-3.616529246498384476e-02
6.104542177011248322e-02,-3.612713294074527894e-04,3.239844976718612990e-02
2.297959900714618368e-03,1.562271138614231003e-02,2.166564669796339215e-02
-4.494719564263347650e-02,-3.985935526131773043e-02,8.047436931449898634e-02
-4.824203110357578976e-03,-1.394715294568161026e-02,3.570561040134949404e-02
-1.490024690862372381e-02,-2.969155853628593217e-02,-8.965836154988519879e-02
-1.622404643946084510e-02,-1.701438124392263196e-03,-3.911399688951752024e-02
-2.698285665834965208e-03,8.622091192768011059e-02,1.827026371009633082e-02
5.463428244860655397e-02,-3.968546110557700374e-02,5.158229647661909112e-02
2.160982247000891796e-02,1.544338484692585334e-02,-1.743187543181573193e-02
4.346350358711410788e-02,-5.515421298595142574e-02,3.023492894794441166e-02
2.085991856125170296e-02,4.127618238420052016e-02,1.388810949553079266e-02
-2.795567772642722562e-02,-6.604885846470434640e-02,7.218971448927993806e-02
3.850349660707169663e-02,-7.495949771837753794e-02,-5.057092157842596469e-02
-1.544285667296966570e-02,1.504205527366395817e-02,-3.776946857426782128e-02
2.599907854062818643e-02,3.328391110698193656e-02,-2.544296710021631824e-02
4.890006334695484735e-02,-8.494159718940792747e-02,-1.852452503182268687e-02
-3.318727800113197707e-02,-1.455163751940191479e-02,-4.794723228558031569e-02
2.499817284279037821e-02,6.970699305743695284e-02,-1.103115391358329075e-02
-3.787113668276933381e-02,3.737620108917903000e-02,2.221422502344930217e-02
1.025742663679456330e-02,2.134880416299392292e-02,3.919706355423989083e-03
8.787283484356928076e-02,-3.851349466017147533e-02,9.082236775964049047e-02
-5.881603205186640253e-03,1.435110949498809643e-02,-4.375249919908300728e-02
6.514371197710877581e-02,4.696192938176495246e-02,-2.443878144947435587e-04
3.594619238498881347e-02,6.515597039553025493e-02,1.521131389821195508e-02
1.036091637785307995e-02,-1.856336906799171266e-02,-3.067083715217022288e-03
-6.616334118279559862e-02,5.502990991858831837e-02,3.286681550116589412e-02
4.527193863711068827e-02,2.866981102946703289e-02,-8.797558568408835045e-02
-1.273503626673416116e-03,8.959164117401701571e-03,2.704412807766390890e-03
7.931902073261921926e-03,-9.862546584057265905e-03,-3.294592581767142648e-04
-1.444912257709184480e-02,-2.350842209883379635e-02,-9.670601252665342665e-03
-4.720639540803647088e-03,7.945242437069890973e-02,-6.017451891118889146e-02
3.203790779061346794e-02,5.622001736507623026e-02,-3.179375974006460465e-03
2.737189898484977939e-03,-4.010214738333992696e-02,-1.478793278859386745e-02
-3.824768781511286159e-02,-1.456214684787508111e-03,5.855431589390061586e-02
-2.821187401141682718e-02,-2.751238664502976550e-03,5.673416538161946826e-02
-4.819473539713792221e-02,-1.000228476441471503e-01,7.018512672902391114e-02
6.245669250768634551e-02,1.141298024149404837e-02,5.102174410043387731e-02
2.885366387941291910e-02,-4.441373647880640652e-02,1.493125297976746237e-02
3.143687521282315794e-02,1.156266024726596356e-02,4.224594988246210825e-02
-4.041501083728845506e-02,-1.077315376801210589e-02,-4.640734325950261058e-02
-6.286939332771673827e-02,2.852734222692998242e-02,-1.197066271270653178e-03
5.710919254146371027e-02,-2.206799892212548200e-02,2.783253727485983028e-02
4.923375840488587035e-02,6.275583838837031636e-02,-3.078228883654260048e-02
-1.705976125127261697e-02,-1.539643925269681100e-02,3.873492740178539201e-02
-3.700543495115317383e-02,-1.058123646413083319e-01,-7.072227995563809544e-02
-5.190353606824863603e-02,7.173396302581852568e-02,-4.560791502662286945e-02
1.559585407625761928e-02,3.516636141158954731e-02,-6.932064001540463004e-03
7.431163508961181538e-03,-5.842948166870188392e-02,-2.004736073761486520e-02
2.329127246678404720e-02,-1.719957893693924503e-02,2.268965171499199088e-02
5.331831806908584465e-02,-1.956822224892076217e-02,7.414418921012443098e-02
8.549121911334563173e-03,-5.118265264229729383e-02,-3.334761662089442621e-03
-1.472004696655884737e-02,-1.031968650035640506e-01,1.075659799909945737e-02
-6.150864374016875441e-03,-2.272651065221080804e-02,7.455083988286338725e-02
2.285939444249709517e-04,3.825789720255465265e-02,8.645460797388532150e-04
1.663114187111223909e-03,-5.605212902724502483e-02,-3.041037172254081045e-02
2.696708259429624402e-02,5.655196137111247190e-02,-5.370309203256358119e-03
1.872026233217447336e-02,-3.861354823849955792e-02,5.297353333397912534e-02
-1.754339882883056839e-02,-1.016366820072950490e-02,-4.970369041305957442e-02
-7.849021068393503830e-02,-4.734405290237461705e-02,-3.593527449785716837e-02
-3.146953894522069861e-02,-2.039592774857602875e-02,-5.066011854840741374e-02
2.976001443325007254e-02,-4.319894823206895523e-02,8.905420196231951524e-02
-3.943072427019973791e-02,4.060093147350497117e-02,-8.661233468656746870e-02
-4.463992786900158882e-02,4.577261368813403258e-02,-2.861193895972148626e-02
1.846396327951528235e-02,1.100713680293585045e-02,1.829482701239560499e-02
-8.195024555082261811e-03,-1.882238980675195184e-02,5.619556722857315528e-02
-4.951656421340491776e-02,3.832364473732216559e-02,4.452007261222851522e-03
5.072537622460289441e-02,-2.867179665870495803e-02,-5.180932644036129880e-02
2.144525495003721943e-02,1.755276922601428993e-02,-9.615501066291529814e-03
-5.174722000352605794e-02,-1.922206835664599586e-02,-2.279339439596323250e-02
-2.885869827967565276e-02,-5.536325438713717711e-02,4.505642691463208893e-02
2.923646249015740897e-02,-4.770839409201322462e-02,-4.110928768604930200e-02
-2.654873951496507234e-02,-3.009809226339230440e-02,-3.668436608631267526e-02
-1.863891137855181596e-02,7.306822684669463108e-02,1.016941181285991799e-02
8.850210063253526396e-03,6.897563305559148428e-02,9.841797430847855355e-02
1.452055983696234030e-02,-1.725809129812654746e-02,7.310428824723778918e-02
4.987312757501538097e-04,3.382994987290317140e-02,3.257539297088628966e-02
6.173816416967914389e-02,3.255455175435042342e-03,-9.409344798997489739e-03
7.333539073053102486e-02,-1.186695348156668710e-02,8.851531878983690677e-03
1.589516172362774940e-02,-5.756690015679394312e-02,5.929879956644440453e-02
3.070214364867577400e-02,3.603554462411709403e-02,-6.812643752397853393e-03
1.312495638438807878e-02,-5.317601891255213653e-02,-2.359872469328082312e-02
-6.141649783102976629e-02,-5.035141388931316762e-03,5.371350072107308055e-02
1.421614627545560693e-02,6.135008268199042139e-04,-3.940600961734480601e-02
-9.627961505342678278e-03,7.854763735690058202e-04,1.950924519579160660e-02
6.403763261006621688e-02,1.432917602849290693e-05,2.728192326307090493e-02
-1.737733679353450911e-02,-1.335370299870651013e-02,-3.658117948578534784e-02
1.340448209795108182e-02,2.127215195233508188e-02,-8.514035020947537113e-02
2.744946478521654871e-03,-3.687115882609229983e-02,3.889327632141612728e-02
-3.268095434714364533e-02,-3.480527268328655749e-02,1.749826234169613026e-02
7.840277667513065318e-03,-1.884264412748859821e-02,-3.867450570120731929e-02
-3.937080737306078437e-02,7.740019307659747050e-02,-1.419693577517553915e-02
-3.077256712623206020e-02,8.067705349355991720e-03,-6.330594805377941225e-02
2.658279162471998205e-02,-2.210894659836125549e-03,-2.424322210379661544e-02
-1.049081745238018143e-01,2.427779525406022904e-02,-3.184588076526727318e-02
4.515884801048423297e-02,-6.560045315646224895e-02,5.983486245216974170e-02
1.037349146971548383e-02,3.476314765242611432e-02,-5.891141079622395915e-02
-1.803060444395929510e-02,-5.866111379450996560e-02,1.945257733166626604e-02
4.692043021949517112e-02,5.277994349948860603e-02,-2.826135673388114125e-02
1.821498867712453493e-02,8.445060292513228983e-02,5.677822455238320382e-02
-4.009483537644981804e-02,-2.634170475827766339e-02,5.062422822116506398e-03
-4.557648795639089589e-02,2.039366396493506872e-02,-2.026770162189262675e-02
-2.336703299793837715e-02,-5.112742199502804535e-02,2.978946829618658518e-02
-4.743093768044855801e-02,-1.865499609951810564e-02,9.783921213934971411e-03
-2.005402879838163663e-02,-1.145191681255302652e-03,-3.453804456290585773e-02
1.028914526481949964e-03,2.413575229236285605e-02,6.194436184362607858e-03
-9.296873439250565030e-02,-1.625278801133469078e-02,-7.408276794001781088e-03
2.802664478900721706e-02,2.136012183639381459e-02,1.584748348965237322e-02
-3.589089994797851207e-02,5.118234936725948869e-02,-1.349386333014865498e-02
4.943427144923677463e-02,3.759119463855260801e-02,-2.201717428714988420e-02
1.676572265844511467e-02,-4.957675599326669819e-02,4.559393538488046294e-02
-1.518060742850149518e-02,-7.270790695418400014e-03,1.164187087537077794e-02
-2.349489484482936152e-03,1.015942954396287928e-02,1.877134903732322058e-02
5.199705072937917116e-02,-8.001007654595007623e-02,6.815356944939393591e-02
-1.101199224615528882e-02,3.767234769364632974e-02,9.740828297578921560e-03
-3.934278953546952590e-02,-1.337388438418990293e-02,-1.476174871939809653e-02
2.917074266520640596e-03,5.058376127770158881e-02,1.110566008234256247e-01
-3.621203736978059751e-02,5.691273212116620267e-02,-8.336704453914378643e-02
6.605239130278391102e-02,7.864595058922074083e-03,-4.085506050203667645e-03
2.962905024417137462e-02,-4.405220934327302995e-02,-3.538228665754883980e-03
4.642837514606414084e-02,-9.260532918233680202e-03,-3.037121610860367069e-02
-4.624028328902302781e-02,8.018526958765909152e-02,6.175885217702033365e-03
2.268385816157082041e-02,2.167763383130859658e-02,-8.900747355139117245e-02
-5.583130005248494732e-02,6.303532950147290419e-03,5.389370465644292146e-02
-6.079487654843821268e-03,-2.393715002062085651e-02,1.190369674660418826e-02
-6.408355813067936890e-02,6.645005222234627584e-02,2.629255062429946763e-02
-3.168247182825815154e-03,2.042644324205094338e-03,-1.930179214737840626e-02
5.852475807758962534e-02,-3.489882845072635881e-02,-5.629063108945954810e-03
4.225671069956186965e-02,1.817856094275777795e-02,-6.592658235387600929e-02
2.060716168584831795e-02,-5.756605716133991746e-02,-1.485393063888731935e-02
-1.819385724519268117e-03,1.266096273390882737e-02,7.595289799942608541e-03
9.039364915240025167e-02,-9.601638080046298596e-03,-2.151349993608211650e-02
1.105968274840885175e-02,1.489003149385710253e-02,-3.282705893654316170e-02
6.397363005013355711e-03,1.208173696358471640e-02,-8.214229924223916124e-03
-6.135786606823786377e-02,-2.322923085899670365e-03,4.169382153943047148e-02
-4.776965645122577264e-02,-1.973803834046018030e-02,4.087224997478908911e-02
-7.514595616631193804e-03,-6.551539296458619432e-02,-3.575892266907425981e-02
3.643272821108228809e-02,1.866131813596844449e-02,-7.506208791171684047e-02
-6.591755320896959536e-02,3.538957989477991423e-02,2.258948120971873003e-02
5.086467187778809934e-02,-1.008521524312516911e-02,2.204264954693168146e-02
8.289216817903625328e-03,-9.301488974901278572e-02,-5.164848467122278020e-02
-3.069687914935370979e-02,3.576892514649509386e-02,1.590629424305754075e-02
3.816848385798861376e-02,-7.315636264447763527e-03,-5.186080028447326989e-02
1.972117981496120803e-02,2.955340637600481837e-02,-3.805158782223486830e-02
-2.790087014904027093e-02,-2.921175861090415452e-02,-8.229172623141028931e-02
-1.866058401144819398e-02,-6.987821745626370505e-03,-2.406609374510050928e-02
1.994132135033329506e-02,5.707747148018676997e-02,-7.516334538338496907e-02
5.259290455300278527e-02,-8.563280067805059681e-02,-8.794308530976860383e-02
-3.437028807066430658e-02,4.599095508743689803e-02,-2.511230594753155118e-02
6.350196118499156460e-03,3.332832509045202674e-02,3.283766898076272145e-02
3.988578131791516157e-02,-1.131520521715610565e-02,-6.209092886343152429e-02
9.969389732882633429e-03,7.695301275164573296e-03,-1.871708874815917328e-02
4.291335483679416946e-02,-3.751316003022513168e-02,2.313975315293792523e-02
6.658637384314625152e-02,-3.539441692264117673e-02,8.661456920878192467e-02
-4.330132502328720018e-02,9.087179724715628570e-03,1.942197249359748495e-02
5.334771240951732135e-02,5.482663434979970218e-02,-7.664313193536498314e-02
-5.834684018273723384e-03,7.722628022394305639e-03,-2.710712283115349758e-02
-3.684380800719744276e-02,3.668674451752081123e-02,-4.046643442971535609e-02
4.935999742634827187e-02,2.350898696534615279e-02,-4.503667845179066404e-02
-6.325388477263918507e-02,-3.044471739153154638e-02,-2.936889096844807340e-02
-4.215018918291941336e-02,-3.121874864780351672e-02,-3.353992207972859851e-02
-1.181515692665827955e-01,2.817961440407390147e-02,-2.664999806824731865e-02
3.743706260203114554e-03,-2.488519801087499955e-02,-3.143621988017434449e-02
-9.036869485986985528e-02,2.172282241779640091e-02,-6.416077076667797176e-03
2.939995666397678510e-04,-4.367830214396192096e-02,1.342929638854825115e-02
5.744231296101069695e-03,-1.961529378354704561e-02,-5.802643443147557228e-02
-3.326431894752704399e-02,4.162196718084293368e-02,-2.995064014141640522e-03
-2.209923211592554684e-02,-2.836669546916445505e-04,1.082070890712711134e-02
4.208832451325191654e-02,-1.019452611887057686e-01,1.696314575025701515e-02
-4.102839383247776014e-03,5.182550677828128873e-03,-1.114430648947447033e-01
7.161236555419797645e-02,9.315414403328031723e-02,-2.606927831554625014e-02
-1.985159330609849795e-02,4.866458985942113263e-02,-3.593374374793968651e-02
3.287215262027933654e-02,-2.901032576751051001e-02,-1.300808899860654289e-01
-2.443564520007377502e-03,-4.749376936092019469e-03,5.116654906603693154e-02
-1.507291624764495706e-02,5.282160943229038952e-02,9.245170338454337944e-02
-4.211005743882272750e-02,-2.476337082864261616e-02,-1.747133694643962856e-02
-1.305284448813479308e-03,1.502990903646016750e-02,-5.504034002964525857e-02
-3.312284815633879942e-02,-2.353956873593687424e-02,2.014633134240886858e-02
-1.708316391333516678e-03,2.939982399444059785e-02,3.830514379270397868e-02
-2.881659965404084756e-02,3.753470685072791968e-02,3.293161784277629650e-02
9.653794129481848034e-04,1.027171862476663512e-02,-3.053155109999498504e-02
3.592025814404328082e-02,2.675252415477188256e-02,1.742015998208704466e-02
2.575022321122552235e-02,1.539253225634631961e-02,-3.788728964190275772e-02
4.267625672346803817e-02,-4.004918347194382292e-03,-2.437255010604857594e-02
7.232793828589954843e-02,-4.457202838963443547e-02,-2.150290676529219985e-02
-1.786843865477785037e-02,-1.289537875205889854e-02,-3.635926122136610289e-02
-4.477796061691130536e-02,8.728870015078006236e-03,-1.266793704652332923e-02
2.043189642638523068e-02,1.589603194939315234e-02,4.591387669930792857e-03
-2.756415982166342260e-02,3.899328703173036981e-02,4.465016817589181203e-02
-2.209129414652889062e-02,3.539028597983365221e-02,-4.725806282021464966e-02
7.068467668350591170e-03,2.018244039382922211e-02,2.198727063140112209e-02
-3.235671013560668940e-02,-3.888658707947410809e-02,-9.264786555449164209e-04
-1.353489802874177639e-02,-1.105388070597684326e-02,5.005975384950942658e-02
3.231027166771214404e-02,-5.178890180146891731e-02,-4.319778656749298507e-02
1.336506151791861253e-04,6.186534837289962840e-02,3.773550800503685382e-02
6.466576794758563396e-02,-2.983848637020481906e-02,1.012582985249921713e-01
3.798981328182280542e-02,1.821938072518070745e-02,1.830478240672050181e-03
8.698415656636605472e-03,5.733738361823594726e-02,-4.991069758820079749e-02
-1.032145748869436885e-01,2.924881814196528609e-02,-4.694506115951340743e-03
1.433801678633597754e-02,-4.648135649971201280e-03,1.527220797845179993e-02
-3.302694386677602900e-02,4.790470487640133973e-02,3.065904735646694801e-02
4.988364883077549272e-02,-1.391865635844657424e-02,-2.121975101865686622e-02
-9.961330774216931461e-04,-3.840313952983327728e-02,4.829376002068217627e-02
2.124279813125066682e-02,-4.775872041568781506e-02,-3.062926977327335223e-02
5.482008104778381130e-02,-4.740569242545900064e-02,1.367811309596833613e-02
3.235103237858565767e-03,-3.932999700834987657e-03,-3.455093793963306265e-02
6.816002019146753799e-02,-4.908747606322993312e-02,6.130160935827771128e-03
-2.801884460162154533e-02,2.546857769262313512e-02,-7.452300363310566944e-02
2.883060250825224095e-03,6.518372607862477075e-02,2.289200893493594652e-02
6.623594064673235526e-02,-2.182665709310491545e-02,-2.647405806195592126e-02
2.919380312711562439e-03,4.721226360086513973e-02,5.709449238268300697e-02
2.891328394487509279e-02,4.037952269455979265e-03,-1.718476968184563802e-02
-4.475056061086205017e-02,4.117618579034681286e-02,9.093357371397879640e-02
5.031166801937087679e-02,2.234380515525815486e-02,1.504861633518166228e-03
-1.895057921474359308e-02,-2.493799837440090553e-02,-3.287199095998377674e-02
1.264685516771902642e-02,7.651018160386065248e-02,-1.987249559924539333e-02
1.764800846294361028e-02,2.029328169593023687e-02,8.631871751475559892e-03
-2.345499634341589174e-02,-6.942428097754713145e-02,-4.085384254179135269e-03
-3.895321490304170381e-02,3.060690004247227855e-02,3.337370783789810058e-02
5.022963455298191243e-02,2.793836018655881243e-02,2.283720709507701396e-02
9.822644536835899165e-02,-3.714371656831202267e-02,-6.757895987252710013e-03
-2.875129684763691462e-02,5.004134689368799904e-02,6.974812934387043806e-03
4.119483650521549301e-02,-2.468452781406982668e-02,1.862950671125891342e-02
1.106023775870000787e-02,2.075606815892761317e-02,2.319152734131841795e-02
-7.101652681499105724e-02,3.510919952261678384e-02,-2.734031348638473261e-02
5.821597719105173208e-02,-1.329395694076978413e-02,-6.849728320815917648e-02
3.988716752895861417e-02,-5.095997833426048340e-02,1.220675304775638119e-02
-4.035504205348892925e-02,-1.595659060639545782e-02,-8.209862250816980789e-02
1.791075997448747514e-02,4.168236588594914638e-02,-3.462517594903959800e-02
-8.073234165698439657e-02,1.143924895673331665e-02,3.351698330312636361e-03
-1.785048074514321292e-02,8.475108008151002736e-02,-3.382226196270670532e-02
1.160769042282796745e-02,7.651248668702346351e-03,8.466805106217294499e-03
2.146615478464428475e-02,3.179381735323162650e-02,2.446181044401468316e-02
-5.036691242369156774e-02,3.590318720254396384e-02,-1.063324627962933533e-01
6.630427033820305432e-03,-7.322173731447263398e-03,-7.017126995787672638e-04
-2.616854962053937958e-02,7.002782520373350243e-03,-2.109257315407876351e-02
-7.942306948082752602e-03,1.390357893075903732e-02,-1.313982534200804596e-02
9.445539199487805807e-03,-5.841684725149366535e-03,-3.490937981295388903e-02
-7.282604139453729974e-02,2.832846969118988853e-02,-6.802089380691173082e-02
4.787787029824575047e-03,5.145460443444451609e-02,1.576534369459128837e-02
-3.288368454886704539e-02,-4.764747752225596822e-02,-7.490404568123615846e-03
-4.542954311072120582e-02,-4.334957469561501946e-04,-5.176168789306481721e-02
2.008009258237452091e-02,-5.016255427932810561e-03,-1.036006143941638723e-02
-1.983153921647469800e-02,-3.649176139207912367e-02,-9.434388596533936633e-02
3.248131448785179093e-02,-6.141058695072675044e-02,-4.900096426276286457e-03
1.072699541922945421e-01,6.632141976369156089e-02,-8.038273214769786623e-02
1.843425726236173554e-02,-3.758710134511946029e-03,2.644476891424691820e-02
3.929533410794111559e-02,1.902467069863808188e-02,-1.971537292677337863e-02
4.790416375068656113e-02,-2.920468424079796736e-03,-2.082837321892034785e-02
3.414398118659322384e-02,4.251318425714765981e-02,-1.249054447411377571e-03
-4.783539597532993071e-02,8.022250978701560634e-03,-6.817682925048708896e-03
-2.563738723957222077e-02,1.813201430396949032e-02,1.869442207885511215e-02
3.778175718758951251e-02,2.406984237070737900e-02,2.014051999535617157e-02
-3.312385201799622481e-02,-7.106446526089540972e-02,-2.497705785560541767e-03
4.167350733453407605e-03,-1.769111891948035170e-02,6.054457760900570223e-02
3.016962782848660665e-02,2.061838548922894157e-02,2.370062337474234532e-02
2.420422150846025106e-02,4.484697271824929915e-02,4.698455961019998989e-02
-3.456726020895712487e-02,1.740690481280868576e-02,1.197576039725985024e-02
7.783701953340489525e-03,1.972985737537559167e-02,1.562417995129858697e-02
7.220071453286762420e-02,-9.372146045771523326e-03,-5.209460136301000827e-02
4.206006383396912462e-02,1.654639521436403540e-02,2.991811648427880437e-03
4.353752635597689727e-03,-3.508750528057989065e-02,2.608853684831118069e-02
-4.604545390387616843e-02,-5.685493624104143162e-02,1.772757232649406055e-03
2.783793786565344486e-02,-2.538466363718596200e-02,-7.872158345921810574e-02
3.389368394905888288e-04,-5.386696265370553502e-03,-2.334872196755627405e-02
1.841553249910848553e-02,4.866401347359153307e-02,3.847702551594351945e-03
8.390846742585243712e-03,1.317006822855486953e-02,-2.591514656019770074e-02
-2.270409214223742533e-02,-2.198144096579047243e-03,2.127300845981064045e-02
-9.858406163684841836e-03,6.634105864875607279e-03,-4.453928218969029768e-02
-7.282734957334371928e-02,-3.336130194018904760e-02,-1.509394186630129940e-02
5.945466444587003962e-02,-2.545992848005439180e-02,-7.221757964699480892e-02
-6.170521044841015268e-02,-1.587799533790908157e-02,-2.835258236292233919e-02
4.803062188845547836e-02,-5.421343350734881411e-02,-1.509678621247010667e-02
1.129155783536767502e-02,4.878830064015527270e-04,-1.517989691654766764e-02
8.043458794393490083e-03,-8.668769972626406972e-02,-1.489265169868144237e-02
-1.357923979589569820e-02,3.923633384709999949e-02,-2.392130316611231280e-02
-8.630057010790366523e-02,-6.043856855325896449e-02,-5.742508511695657708e-02
-6.302775109102713713e-02,2.597536632239305643e-02,-9.644167384705965018e-02
1.566103926741338470e-02,-6.536690112429958087e-03,3.012313401514794473e-02
-3.319049879198586028e-04,-3.835481412805031437e-02,8.679671825029156018e-02
-1.345533382867122527e-02,-2.439754095410716361e-02,-1.520450537220028979e-02
-3.412054248900284886e-02,-2.399513417787240560e-02,1.520414243304937275e-02
6.225170919590200524e-02,-2.339636048851285316e-02,2.623721625567218205e-02
-7.077412982908472261e-02,1.192520691445110061e-02,7.313736214045170325e-02
2.033440078524247074e-02,-6.804648504080603594e-04,-4.430883847648561802e-02
-5.920143475364112590e-02,3.561794565381517369e-02,-6.794905084576263743e-02
2.498242494495551969e-02,-4.047838459609745879e-03,3.275002017679744248e-02
2.786193636045465952e-02,2.335821428269813788e-02,-2.003031722112128335e-02
-2.802426389808247102e-03,3.263186209117547448e-02,2.378717965062526404e-02
4.640739995304601906e-02,4.032279556845706076e-02,2.640794833655858709e-02
-1.238816829195159286e-02,-1.256976006396554740e-02,-1.014019409505409336e-01
6.203336922541578119e-02,-4.979332216388171473e-02,1.422707751642048324e-01
1.022434124771567227e-01,-6.333338683381528611e-02,2.239518130349209962e-02
-1.780875524602800559e-03,2.125884332273688879e-02,4.663144119283418876e-02
4.105212897344925199e-02,-2.008195282635987303e-02,-7.088602340071016583e-02
3.372366833334512759e-02,1.316089807858391095e-02,4.708057828809160926e-03
7.097008983803500259e-02,-7.766161600962583240e-03,-6.759247232529216887e-02
2.857895474286103327e-02,3.465338373924067850e-02,1.714751750936089822e-02
1.251160566685872999e-02,-8.845784078624939007e-04,5.293857470462354220e-02
6.106524787303775452e-05,-2.216199104691517208e-02,7.239790019641161034e-02
6.920634714142936961e-02,-2.067801981300698439e-03,3.073918200491881914e-02
3.504619696770241988e-02,-6.886306203991973685e-02,4.378134733476864854e-02
8.428323601633096185e-02,5.467047504451350709e-02,8.224048461225892670e-02
-4.652209039289081915e-02,2.197914080226720523e-02,-1.719856194964097459e-02
-1.950445551776022399e-02,3.070825028413650022e-03,-2.092104511813631593e-02
7.058755456100890280e-02,7.870129570602643621e-02,1.873330124842271030e-02
5.377106412014661524e-02,5.717895082436056861e-03,-9.874572458313638640e-03
-9.375725303268570010e-02,3.612784037380803448e-02,6.016221876647786376e-02
3.241240337754455053e-02,-1.354435777597576621e-02,-1.041354274211509501e-01
8.865943899419628446e-03,1.688017361158122148e-02,1.960165336456450719e-02
1.202803216475828579e-01,-1.838806235048588700e-02,-1.507729679508680240e-02
-8.485092606547952124e-03,1.134725527731181294e-02,6.890517774004957519e-02
-3.362132491012743279e-02,4.306522210913409088e-02,1.926974219570163141e-02
1.917242186922775860e-03,-3.945844175892177647e-02,-4.450405239131335899e-02
2.212068880289059375e-02,2.717159812447861311e-02,8.539319156713303868e-03
2.325937126197046446e-03,9.964611047220508708e-03,-2.343693320418546028e-02
1.945410837542461936e-04,2.891125966408642639e-02,-9.739879517223482691e-03
4.111008852382347367e-02,-2.518774147908767538e-02,-9.058665257420739705e-03
2.964146086404927452e-02,7.317678520834049703e-03,2.296237845551680340e-02
4.665661940334765549e-03,6.989873212810013281e-03,-5.324850563065113007e-02
-3.618071713979031240e-02,-6.208296457905837507e-02,3.098293255003156405e-03
3.599918916452236883e-02,-2.464975950451476355e-02,-3.161157541511354363e-02
4.945998788507627308e-02,1.055257510035191755e-02,-5.107514906212426431e-02
-3.066339972766539065e-02,-6.854362609449191762e-03,-1.796342440619031963e-02
-2.836278337948642397e-02,-5.400501843009105490e-02,4.323344146960726719e-02
-4.717317207226269515e-03,3.862259593317091122e-02,-4.493633430292561654e-02
4.582370314223038060e-02,3.934602555258952250e-02,-6.791469271956335554e-03
2.390497702668816296e-02,2.517464805180690685e-02,-2.258975060159965423e-02
7.713714656280185045e-02,4.851979600412465593e-03,3.957567003028348435e-02
-1.823520552937990535e-02,3.980678550426909428e-03,-2.968212581340486100e-02
-3.177649881177617430e-02,6.162825389269138698e-02,-3.156686756837539382e-02
-4.424957453010649328e-02,-8.157600090692827821e-02,1.100024759989750829e-03
-1.073046002538181366e-02,-2.414673140876834063e-03,-2.883218437078860497e-02
9.381654124911473214e-03,-3.550497465310197692e-02,-1.923267467223304869e-02
9.414881679845907292e-02,2.694714650750841198e-02,1.539753837763068595e-02
7.384179776557696362e-02,1.124213953069565231e-02,1.823605100833390613e-02
4.802770370239977521e-02,2.249924477890564989e-02,5.328517188865749925e-03
6.730493475460821995e-02,-1.048563539540724177e-02,-3.661176167773912311e-03
5.654963351152327705e-02,-5.284966370164460858e-02,2.165064837598484546e-02
4.255242564950655754e-02,-5.105064948115656254e-02,-2.025442970524780895e-02
9.615808124286643471e-03,5.269805881070012410e-02,1.835084870442948643e-02
8.540406000651070079e-04,-5.974510620996849319e-02,9.205965366078762424e-02
6.208547614989873287e-02,4.785597633762032899e-02,8.448212720161166894e-03
6.094674443797350183e-02,1.204029367285824534e-02,1.797837747822817606e-02
2.357102776238610350e-02,1.936255635756357343e-04,-6.266072369777854478e-02
-1.096813054100549689e-02,1.900904919722674891e-03,-6.069444220060313255e-02
-2.958580811337933533e-02,-1.724822978420707809e-02,4.731255014968772238e-02
-2.584244985331133823e-02,-3.727178932739739353e-02,2.195198926190628994e-02
2.881438497217472111e-02,-1.866666308536601981e-02,-2.547392032768699272e-02
2.476499435113238470e-03,-3.836167760336337863e-03,8.337161777308565655e-03
3.615713195629616933e-02,2.294038149197751356e-02,-7.369472043803546035e-02
-9.818878934777354461e-02,5.758111854245349243e-02,7.752892832198831491e-03
6.281333025418966987e-02,3.344635612466816121e-02,-3.592049942688584465e-04
1.895110446362796922e-02,4.214886914636045007e-02,-4.159547878326049462e-03
-9.353869015457129399e-03,9.038128903585608553e-02,-5.992784113847276356e-02
5.780347983986164340e-02,6.130715714763744495e-02,-2.041511504403087374e-02
-4.435032909009540419e-02,-1.170676467444796594e-02,1.770037411493841778e-02
-4.343877054573741514e-02,5.715918326592308446e-02,8.450058142735707156e-02
-5.753665386053753023e-03,3.037094810170892431e-02,4.152041356633318081e-02
1.862882063626822727e-03,9.612709381325077948e-03,-3.050779737920993398e-02
3.595331634893045303e-02,-4.089376072081604002e-02,2.133271631772056323e-02
9.816093335208211576e-03,3.325863417206981892e-02,-1.513095442032536819e-01
6.984910091252029274e-02,1.079147151770445089e-02,-1.130680047482767771e-02
-6.587936836324420273e-03,2.147391157595668690e-02,2.992283722010487604e-02
1.932693873110427271e-02,3.601423685399073038e-02,5.968979490188548037e-02
4.344296484978166922e-02,1.471526366242492494e-02,-1.228066636551183172e-02
-8.208105989848815676e-02,-3.379161847248791234e-02,1.811952362646775810e-02
-5.980372544111928201e-02,4.523602891125680370e-02,-2.197082212221502379e-02
3.354962483723419875e-02,-3.084293121856286971e-02,-1.455671022237537901e-02
-3.869288634716002567e-02,-6.202152617673335061e-02,1.112791871805307586e-01
1.969345496084077760e-02,5.339561222640382132e-02,-3.260110071219277789e-02
-1.334070327098467977e-02,-1.021736049260126185e-02,-2.258173306825791374e-03
-6.054943314520201680e-02,-5.883520958622097397e-02,1.804440121559570172e-03
-2.058318733995167030e-02,-3.311281591776659566e-02,2.671237190697402578e-02
4.549711368629961311e-02,-3.159715032341785246e-02,4.649087043249674339e-03
5.034346242927356663e-02,2.533013041482934727e-02,-9.333692506564862656e-02
1.235503555520385110e-03,1.899198054789013115e-02,5.811806671325155105e-02
6.891850868322321744e-03,6.161640544713507806e-02,1.775700109262889903e-02
8.232377366258097559e-03,3.625582260928636794e-03,3.200174049989800568e-02
-5.228787047592766551e-02,-2.328721129712575926e-03,-9.374287999001805136e-03
-4.006853372031526916e-02,2.992386318875946832e-02,-1.001159709412552667e-01
6.314603565271569019e-02,8.341742252881023667e-02,-3.115143817852638469e-02
4.347864719554489499e-02,4.849786492303679621e-03,-6.400810190725458870e-02
-6.724673416045770340e-03,3.162417383318236186e-02,3.824981519852314188e-02
-9.560989426628519611e-03,3.164432549861603827e-02,-8.053952461716787359e-02
-3.982148263100247776e-02,3.530187966411885148e-02,6.358887822114148158e-02
5.433271409815942227e-02,4.244455694603687518e-02,-3.168168977277984605e-02
-4.150864590237834939e-02,2.863871450101059674e-02,6.077200419400243664e-02
3.670664319130335224e-02,7.513430605238576900e-03,-8.995864004193438249e-03
1.865127446566808636e-02,8.223057981512220437e-04,-5.118587645795677314e-03
-3.638003538726351793e-02,1.474627431265333397e-02,1.798182606468733125e-02
2.828014521425692429e-02,2.432507458764911201e-02,-8.103577611963541649e-02
-3.222335602253244974e-02,6.035968477901969970e-02,-4.351754148692219687e-02
-4.186821194024040876e-02,1.857788139981437006e-02,2.650315401088657388e-03
-9.597074048222152542e-03,3.799457543412262245e-02,-1.488529239539292462e-02
2.525353132122740499e-02,-1.277324010707297543e-02,-7.501142297016831495e-02
6.916320005330321707e-02,-5.016637351828587971e-02,2.889775656122711353e-02
1.126591117435237670e-03,2.950466337714744910e-02,-1.991370095891758021e-02
-9.464756160021475188e-04,-2.664396222663919719e-02,-1.498895702558691347e-02
-8.874958271871159765e-02,6.177111356160445294e-02,-5.960102027847848788e-02
9.837974929434275401e-03,5.291849134426216544e-02,-2.716076950299743664e-02
3.113069238937045402e-02,-1.741409996162816137e-02,1.006492805442857352e-02
-4.321948772967035279e-02,-6.116336056347564630e-03,-8.888303034737130015e-03
1.637704627454339423e-02,-2.078382066881863388e-02,-9.402637315669893150e-03
1.392123122879429693e-02,-2.746338174474245372e-02,3.405313527390491091e-02
-8.014940006539451878e-02,-1.479835322700009080e-02,-1.808417892229532281e-02
4.915110685492505432e-02,-3.907753603251255120e-02,-1.217112842593295712e-02
4.209582905911448542e-02,5.830281419061197727e-03,1.350355528519011153e-02
-3.985625661431547312e-02,8.853893030353801596e-02,-3.337068402468264944e-02
-3.840527407392008846e-02,6.082259474559783413e-02,-2.716087060006093859e-02
-4.686256950873231297e-02,1.208445958757888711e-02,-5.155190667491571510e-02
1.111015070915858868e-02,-5.860192252624347314e-02,3.276733663537218649e-02
-7.350552177561120101e-03,3.777947565291777613e-03,3.534893833431117932e-02
5.038540888115042998e-02,-5.651079282110454613e-03,-1.173498870402534325e-02
2.777926085990761046e-02,-2.732949547459808878e-02,1.152682082742875758e-02
4.071077205938030547e-02,-8.278532781937899751e-03,2.248000480873772397e-02
-3.700675000157700040e-02,-4.406415969241265357e-02,5.562270594174259508e-02
1.026165757287945263e-02,9.962074672875310608e-03,-3.393643877349213078e-02
-4.505191602210405211e-03,-1.781077251450971163e-02,5.491446044240800434e-02
2.007055024406446259e-02,-4.379251883725309748e-03,-3.313056927447433075e-02
3.472177800986303575e-02,3.955753407190705506e-02,-3.094900281875983400e-02
-4.488907140095180562e-03,5.110649885730138287e-02,-9.021675034956716521e-02
-3.715439217053374821e-02,-3.107809710035145181e-02,-6.173136045743559406e-04
3.839977809633382533e-02,-6.434575849538295284e-03,-8.030794260416261598e-02
-3.395344732694360185e-02,-1.407887230107642516e-02,1.289705564017756996e-02
6.017423915433469522e-02,6.023376139321083567e-02,-7.634900232347856253e-02
-5.664022235100765572e-03,3.666692643302348759e-02,5.619429985861670862e-02
4.029924713772200379e-02,-5.776722437298634216e-02,5.442695924182005228e-03
6.856445257602064580e-02,-1.393195837502659304e-03,4.786315529857404494e-02
5.983254625548096312e-02,-2.128425890115305009e-03,-4.356619902864108940e-02
3.649685381421212405e-02,1.184487341090158588e-02,7.544006053636814410e-03
2.001590919374993810e-02,-5.945273030543889864e-02,3.287009276427189323e-03
2.525608678668479420e-02,2.174295528621963611e-02,-2.024470990725846936e-02
-1.478284554557060364e-02,-1.857538234925540334e-03,1.226017709220429686e-02
-7.551738271693868472e-04,-7.165605135770339307e-02,7.608729876425940342e-02
-1.763382155312558097e-02,1.491800893762486487e-02,-6.496721173899404431e-04
-5.487896663502922490e-02,5.895690215398308176e-02,-4.021841417945293956e-02
-2.455023714553210626e-02,-5.051099488440703722e-02,-2.363708164916420232e-02
3.537928515978295413e-02,-2.346761527317450108e-02,5.096470852252171085e-02
5.123129302904151118e-03,2.705179724044829218e-02,-6.130592018637791990e-02
3.122762264674975446e-02,2.095510309826561016e-02,6.213589892959203026e-02
-5.430752112155626428e-03,1.536380845089376466e-02,-2.395153171013403651e-02
2.165310829825884895e-02,-2.905531213493633969e-02,-2.844026389757948678e-02
-7.402494553922226578e-03,6.369567970287895453e-02,-3.040503486169029990e-02
-1.686632902694128189e-02,3.880009525217507221e-02,-9.557645031331912788e-02
2.305748392017414449e-03,-5.522679222301691421e-02,6.402608509541481141e-02
-1.625133590630580341e-02,3.159668075297648870e-02,-3.335204200217966371e-03
3.575148323505429604e-02,1.007337137589043100e-02,-6.656738796218029941e-02
6.610874371712747999e-02,-2.079466176163401875e-02,1.091450014477475354e-02
-2.937301737715001040e-02,3.763228416876927135e-02,-1.779264367532200006e-02
-4.456527036191311464e-02,4.629077796491230107e-02,4.283112846769445738e-04
1.289961625112484925e-02,-8.432266424424324572e-03,-7.901346273300113507e-03
-5.895836501767790644e-02,5.768534849398707261e-03,-1.522468251839366460e-02
-4.032216747799358819e-02,-4.089734154568538949e-02,-7.884030563141191869e-03
3.755320665696967875e-02,5.541092040717953554e-02,-1.882303964920891120e-03
9.824537074339334541e-02,1.304765615237167900e-02,1.958348983768169391e-02
2.410787306177956252e-02,-1.841922078602774857e-03,2.495429311212787188e-02
1.180623471742358460e-02,5.243632011012154537e-03,5.376913513527328825e-03
1.374969497437214441e-03,-2.359154681116597263e-02,6.438106885896634213e-02
-4.657055841138143387e-02,4.795015561646576163e-02,7.796216979189771190e-02
-8.107068830829377779e-03,2.913521540886258496e-04,1.308425804965169734e-02
3.237793180076668081e-02,6.928629422940640360e-03,6.812571508159097344e-02
-4.186312923054108515e-02,4.345254783999741299e-02,-9.582212240460701372e-03
-3.700643344354369313e-02,-1.434680288340489662e-01,-3.196509831082185171e-02
7.370402623246630203e-02,-6.236533723323162484e-03,-5.143894607081232750e-02
2.514111115571488007e-03,-7.805386101870931403e-02,-3.248993142385029481e-02
-3.070358227338015195e-02,3.005641489086039245e-02,-3.720869850287315816e-02
8.155736593038175053e-02,-6.381582778311974125e-02,-3.597889613020453792e-02
4.033859718450486659e-02,-7.985670897361695636e-03,-8.315645887845115117e-03
2.296718633990391806e-02,1.301460906555508730e-02,-5.963469856367732691e-03
8.088540111846635738e-02,1.936621740222926533e-02,-1.266565501149299021e-02
2.173212749710223129e-02,2.024156554913986855e-02,6.363177512402182212e-02
-2.159185316612559618e-03,-5.050830240442019670e-02,1.792117640974036710e-02
4.352137337125356470e-02,-5.164505904629093647e-02,-4.649807876742376861e-02
-3.857374469783305532e-02,-4.545265785153657090e-02,-1.724530686672294533e-02
3.016499179362201397e-02,7.756148641043411618e-02,2.801062602862116821e-02
-2.406276366238147696e-02,2.689277705571076552e-02,2.633028494326225544e-02
1.768001098486640665e-02,-2.576829184941328496e-02,-1.576633247464572299e-02
-5.861187640540213573e-02,4.265712032259096759e-02,-5.315423875308158269e-02
3.132335869087467251e-02,-5.053863029916583899e-02,-2.135649767030274593e-02
9.505065136808546478e-02,2.166860532970808426e-02,-2.053321689073041127e-03
3.319907438219904527e-02,-1.471684199700162669e-02,-3.053896553907217357e-03
-1.680475378447003273e-02,-5.188729983532038362e-03,-1.432592263924634644e-02
7.665173200806334186e-03,-1.355820755014274480e-02,-4.843173555883927006e-02
-1.094536940695938279e-02,-1.304437730542088933e-02,7.953113127022808440e-03
1.451006851563739486e-02,3.550152119248368987e-02,-1.619251677244163551e-02
-4.565683500160011565e-02,-3.456512158087700175e-03,-3.166260726981146717e-02
-1.780683038404758112e-02,5.913436584692398357e-02,-2.125763776790992252e-02
3.003399876874747118e-02,-7.358818309584760214e-03,2.817981790325511243e-02
-4.484222895914038998e-02,3.020650333380609648e-02,4.859323563116559053e-02
-6.135027395865363942e-02,9.637037919406963096e-03,1.531613050350061692e-02
9.482105815952695388e-03,-1.338734098803105038e-02,3.832644368910508026e-02
-8.392515916359732583e-03,1.490025759861864432e-02,-1.216634178366468588e-02
-8.774003791753119674e-02,4.223570192524182853e-04,-8.331449366202069162e-02
-1.816740825687187394e-02,-2.107651740818266076e-02,-3.276847767074650419e-02
-5.838694515063854590e-03,4.964186722505761068e-02,-1.482320293530325775e-03
1.868952149783542627e-02,-3.180691436299940868e-03,-7.670329844545541176e-02
-2.920462965751291495e-02,-1.935503498307655779e-02,-1.328364279131580283e-01
3.184113099456353096e-02,6.404253043497667996e-02,-7.569065197480869152e-03
6.775176847831576588e-02,8.338377625640501500e-02,6.861168027722153520e-03
-4.602242807660787000e-02,-1.260043693372092481e-02,7.802053864571030853e-03
1.272962152246299994e-02,3.785809986144785672e-02,2.072031740974137476e-02
3.478162380702288364e-02,2.094105360938731258e-02,8.455883962246078800e-03
-1.632382085977648542e-02,8.457629647272375817e-03,3.778197924251323198e-02
-4.680716250098036768e-02,5.790832565062585535e-02,5.587624093126973383e-03
-4.493171974330506524e-02,-2.569660608249128841e-02,-3.231285510690874718e-02
-8.850595575386108194e-02,2.972488750983934280e-02,-1.520967225199304496e-02
5.978537347359945409e-02,-7.475603159028215705e-02,4.642729830647330386e-02
2.057583971790651750e-02,4.022020161341451766e-02,-3.702324213186191509e-02
-5.226604365452581363e-02,-4.121403535651838729e-02,-5.291574415808580553e-03
7.531695941704145969e-02,8.806026400396996592e-03,3.216760440875917476e-02
-1.325116927337670510e-02,-7.832780835336283776e-02,1.441728968107413439e-02
1.046361163223611876e-02,9.032900076638178399e-02,7.196308044573147822e-02
2.287713063315518353e-02,-8.141676960378942118e-02,-3.695149661169448707e-02
-5.745417277455715233e-02,-3.658458498372712305e-03,-7.541582780851135981e-02
-9.770805964364573035e-03,-4.146999686175929789e-02,-2.790006997850087971e-03
7.761028990250288563e-03,2.993141883648534930e-03,-3.652484694746152560e-02
-1.688546403631776193e-03,2.683536014853309809e-02,-3.096748000384470963e-03
-9.911941088851265388e-03,-4.383556430771610307e-02,-2.989483668811000749e-02
-3.469962772904306575e-03,6.446229073453838866e-03,-1.765911241559331782e-02
5.757676963137584036e-02,8.894892028118764338e-02,3.421410703310481111e-02
-3.022197733515735729e-02,2.646342597936401919e-02,5.940461422553280912e-02
-3.105346421275370986e-02,1.392927281292960333e-02,5.382503991330649107e-02
-2.326645400155606669e-02,-8.700241538336461744e-02,7.845058415661021467e-03
-2.823192243255110562e-02,-1.467367771681709482e-02,1.286380664105161824e-02
2.506973099879898983e-02,-1.014145620751212042e-02,2.374965961405854544e-04
3.195982109912408591e-03,-2.178302919530106588e-02,1.033833265822969513e-02
3.451899010040937726e-03,-6.393883049419865280e-03,-1.299139035541585323e-02
1.132073828062283016e-01,1.316918176748890952e-02,-4.194135516105498493e-03
4.105981483070265253e-02,1.583785464678650126e-02,1.710652866190850302e-02
2.577600580500765542e-02,-5.684391834695714900e-03,-1.583751600294247552e-02
2.619454027465528689e-02,8.211534971483702705e-02,-3.561775272291118569e-03
3.337284587422639087e-02,-4.585333244455616630e-02,-1.500300994994752980e-02
9.062476991934192636e-03,-2.059719948959180119e-03,3.325060882951006488e-03
1.924637565995616570e-02,-4.263796499862821526e-02,-8.235828891225706674e-03
4.850706725441887579e-02,-1.079978400123685761e-02,-1.429127369551748405e-02
-2.167955385249464503e-02,4.889053873073929100e-03,1.939854719538945671e-02
-4.474548445762908250e-02,-9.129911876903526458e-02,-4.516346978910765197e-02
-4.320842291192471957e-02,3.993265915785026987e-02,-2.195916775152698813e-02
-2.678117381988249709e-02,3.610855444364249184e-02,-4.426695011097199354e-04
2.665923777050208457e-02,5.599119434581342758e-02,2.784633896362452912e-02
1.715048618114000875e-02,-9.812256363292169020e-03,1.019285655557360983e-02
1.133306822140459080e-02,3.300125603438697208e-02,-7.102234926128814935e-03
2.714758273235861122e-02,1.101003290283089908e-01,1.900302269333668803e-02
-4.642189619655691379e-02,9.563355548562645775e-03,2.967393919750755532e-02
1.821753143187331003e-02,3.909901854590472348e-02,5.905478481552914327e-02
-3.596392250219632852e-02,7.380135915269720598e-03,6.026240961194954948e-02
6.414420347832287816e-03,-8.343630727494918357e-04,-1.927506849768257551e-03
-7.190864207149499747e-03,-3.550320868144070385e-02,-6.157253810436431191e-02
-6.462792694857830145e-02,7.883505316278752173e-02,6.342472272684386569e-02
-6.058648866580270895e-03,2.258328196417057343e-02,-1.701532851267618940e-02
-1.226871845767711286e-02,2.255812522671179349e-02,-4.251600061146013076e-02
5.252263700703151822e-02,-5.831376950385906005e-02,-3.283450020205285619e-02
-4.589964301397413127e-02,9.467281306694762255e-02,-1.826617540650172372e-02
-5.699986592204733804e-02,2.876451182790305122e-02,3.757406972388398561e-04
3.629299883490590128e-02,-4.176170265957294264e-02,-1.036637541504101950e-02
-7.627652464592428461e-02,-4.730226895037073671e-03,6.537750142538947817e-02
-2.127233792551451452e-02,6.399230432346175723e-02,-3.867410990428507556e-02
-3.349026352453864097e-02,-7.201650130987689857e-02,1.216496949071198437e-02
6.938103649348745239e-02,3.114438909084835463e-02,-5.512122360862350273e-02
-2.503241642758446614e-02,5.692224209569540783e-02,7.091645374526513168e-02
-3.754677425917164052e-02,-1.173564128901964376e-01,-2.007202013232963628e-02
5.037208541375277210e-02,2.793932998785916486e-02,1.450330441243997265e-02
2.586612317174257977e-02,2.595600078279252862e-02,4.555565145198033072e-02
3.469413835460734286e-02,1.298654059076229279e-02,-1.184760428843675654e-02
1.166307313643814431e-01,7.950057027380823260e-03,2.558777328479401938e-02
9.159681916426333503e-02,-4.767926866886564724e-02,-1.038043451457936091e-02
-3.538548218291598380e-02,3.724947655211500314e-02,9.408149276213620404e-02
4.498954443746950443e-02,-1.697608238190022800e-03,2.163909570529845214e-02
-1.750222313776340910e-02,2.798381258883251427e-02,4.051185157851364821e-02
-2.258722130365240985e-02,-7.017184418457622641e-02,-9.416009256511767914e-03
-1.314744257248822573e-02,-3.244809537727146725e-02,-9.099041333258520159e-03
3.033670740958521392e-02,-3.130447607066744881e-02,4.421034929140850445e-02
-5.195601497663113882e-02,-1.532895281896952877e-03,-1.534809475732293316e-02
-7.449134208979714226e-03,4.212220622927807800e-02,-4.011614785783452347e-02
-4.444253140486655734e-03,3.218286686827291632e-02,2.290311024429114370e-02
5.473786995949474384e-03,-4.202057395929289368e-02,-1.827294869796529386e-02
6.302358716852304865e-02,-3.164816986341552341e-02,-5.535772989633667984e-02
5.100952836896663345e-02,-1.419159706030790388e-03,2.492283571893059643e-02
1.781349231553888343e-02,-6.660075673305120014e-02,2.165431996455944100e-02
-2.021856952871608701e-02,-4.820655850282317550e-02,3.938196574448841504e-03
-1.900170581420058263e-02,-7.003563492579699401e-02,-7.869987836705301387e-02
-6.733292989563753606e-02,-2.900075750824570101e-02,3.841301992353642059e-03
-2.733225214999210340e-02,6.864783709260910416e-02,-3.230766380825780826e-02
6.319219452134433590e-02,1.051215665411881911e-01,-7.405969201024452386e-02
-5.206568236916038483e-02,5.012440726458109765e-03,3.507277099180455132e-02
6.019329804491302394e-02,-6.562530729511323107e-04,-4.609711685580697438e-02
5.771926692203758341e-02,3.824109388424325184e-02,1.403472581392613966e-02
4.539084322256575071e-02,1.585732436816020274e-02,2.350172571825429393e-02
-2.925352749231017666e-02,-2.537186593255323988e-02,-2.286423078288222707e-02
4.204663265251342569e-02,3.501940596587868344e-03,3.154238341934243600e-02
1.605979004641639070e-03,5.716476095157988976e-03,6.444777908675226874e-02
-5.172115993883822510e-02,1.659770291179454849e-02,6.440852911362891786e-02
1.482499808841263728e-02,-3.848730641216997067e-02,4.081388290540245017e-02
-3.497772183919253819e-02,-1.319836998390292587e-02,-4.140739850676625200e-02
3.903839035113255279e-02,1.606825245329865370e-02,2.297526773485919884e-04
-2.193527591370653812e-02,2.287034236978744209e-02,3.367990015437877932e-03
-8.150374651484422472e-02,-1.198876359767930312e-02,-1.933232692874658001e-02
2.404716986550285360e-02,-9.513890530400243798e-04,-1.908199481269990533e-02
2.284810606902113600e-03,6.245081392130396453e-02,-1.294930648836762656e-02
1.206382014219830809e-02,-2.167734279100747916e-05,5.273065399420752419e-02
5.626873172210045126e-02,-3.522168902425358572e-02,-2.524461227193152205e-02
5.817908171507363974e-02,-2.533320388343201016e-02,-9.861411902588799322e-03
3.549298819592115739e-02,-5.434384558097759416e-02,3.120972157862926186e-02
-6.971644097723640743e-02,1.256282143705081747e-02,1.978060908778371194e-02
7.583408773945359005e-02,-2.826928388646150064e-02,1.950834425052250243e-02
1.845872093984177349e-03,7.478198714676148606e-02,9.585313281254487228e-02
-7.047649349423443232e-02,6.867474616377045038e-02,8.188528571150512081e-02
-6.603737048659512332e-02,3.704556506061489822e-04,-2.956031716665521308e-02
3.557274674456113728e-02,4.965912145516322143e-04,-1.848059238130036726e-03
-5.082203054249882779e-02,-5.607057750593250761e-02,1.749479319999634741e-02
-1.296073007120910302e-02,-1.833946267943287536e-02,5.778453989089893383e-02
-1.514050430142504025e-02,-5.819506420285121967e-02,-4.992585394000641219e-02
-5.256881567897036395e-03,-4.253293232680189356e-02,-4.589858198074431295e-02
3.983744999721844371e-02,-3.974150544930242501e-02,-2.947385146602108513e-02
4.464364925690245123e-02,4.564345792621153641e-02,-3.291575981065636425e-02
2.062399952203989792e-02,5.851462050283214207e-03,-1.888983682102764877e-02
6.247447168222600156e-02,-8.703514210617008945e-03,3.234547546681920162e-03
-6.068761806965482924e-02,1.429737988833344048e-02,-7.650822232627690900e-02
6.589213547018966943e-02,-2.446128879686457896e-02,-2.304050570546046714e-02
-3.405931613376707301e-02,-8.562386135088374470e-03,-1.320745500494464007e-02
3.968578729681317141e-02,3.164545427273263850e-02,1.285620944934823609e-02
-3.411936403964081549e-04,-1.433260460397344643e-02,-3.418472259309052880e-02
-3.072629652962465679e-02,-1.717291767855275153e-02,5.204082682684445238e-02
7.073780514571211594e-04,1.603827202717483108e-02,-4.544568013804011625e-02
2.299047178155168639e-02,-1.003283138519660278e-01,-5.551580706404072446e-02
1.465777329004822570e-02,-1.000809955715294131e-02,1.119037967471816185e-02
5.296631439463789920e-02,1.952338533819734240e-02,5.274417472320013650e-02
-1.032595897843751644e-02,1.760651236217340015e-02,9.763506346473613609e-03
1.340035389327257076e-02,-3.587466977424513120e-02,3.356294343809966552e-02
9.665490774848083111e-02,-1.683169466245296175e-02,1.270477679031687887e-02
-5.636836384214377604e-02,1.743612916741375807e-02,1.372484487936107174e-02
-1.501293131490912848e-02,-1.555371474004404141e-02,-1.845597442955823749e-03
-1.204296089421138666e-01,-1.043038133245020177e-02,-1.834753282348346864e-02
4.738124661512264912e-02,4.277849253799399093e-02,3.996131280488972315e-02
-1.105203323567242879e-02,4.098469133639327799e-02,-1.375998855309102341e-02
2.368483270079412006e-02,-2.991432246005895808e-03,2.403061649475976558e-02
2.802690474682248412e-02,3.385280393818499572e-02,9.470303889188262311e-03
5.647347322335651010e-02,3.157612546710396317e-02,2.083898870976072862e-02
-1.023969152360553261e-02,5.625755382035856067e-02,3.251151760910250127e-02
8.425285935588493202e-03,5.344626216256106663e-04,-7.629941003830901201e-03
-2.000016261932988440e-02,-2.509749976682694103e-02,-3.301041219727229858e-02
2.638548313083287702e-03,7.717202883576139601e-03,-5.037049361726430446e-02
-6.618302067843738479e-02,2.942816220316933282e-02,-1.715602315422337003e-03
-1.890345302555077739e-02,1.892223808602814389e-02,8.509055257204067857e-02
4.919956103954258031e-02,-2.801117488819763329e-02,1.358132525263981358e-02
-1.582251743232038210e-02,-1.204279460571954299e-02,-8.730525490392161692e-02
4.610951952962671907e-02,2.875293525736782874e-02,-1.150516646297443379e-02
6.290283691029038837e-02,1.804532917003361797e-02,3.420728896921314960e-02
6.367376575986894360e-04,-2.692548482321339628e-02,-2.908263357781199973e-02
9.998896798723741486e-02,-5.834076805045017994e-02,4.051960526428317888e-02
5.929320588437947404e-02,3.925608301699771291e-02,-9.509353819493002874e-03
-4.508483024732314048e-02,-3.623956487318775316e-02,-3.124255237206682856e-02
4.342622382764670629e-03,2.268784982990924154e-02,6.356730117099841648e-03
2.125624501994078167e-02,-1.154765430481162827e-02,-1.509621588655024951e-02
2.822851568291897054e-02,-1.176301952968055453e-01,-5.151259561767666285e-04
2.318054037867993411e-02,-2.337419409015780228e-02,-1.662246118327997263e-02
-3.698656945897286358e-02,-6.595698918805395494e-02,6.135597200883226299e-02
6.185564175160900013e-02,1.303885491883111569e-03,5.700373459821447830e-02
-8.184691542982387713e-02,5.221274225342047159e-02,-2.386892816055751626e-02
1.638347745017099816e-02,2.397468304031306462e-03,-5.377564823382604414e-02
2.554718134164393403e-02,2.260787722338339703e-02,-7.970781044131251825e-02
1.502842527772343603e-02,8.965318128500737727e-03,-3.354344827398282602e-02
-2.858590281921491102e-02,1.601848864333420969e-02,1.809481221248487176e-02
1.509630062580448635e-02,3.749533004780726542e-02,-1.931167405640122486e-02
4.844265177146739321e-02,-2.619189526586039596e-02,2.760796292732966076e-02
-4.019367119152902901e-02,4.112755358888699198e-02,-2.394938079199407724e-02
-8.071887519016476831e-02,3.076834196839675281e-02,-8.257072348101981551e-04
1.287328060389284802e-02,1.173296315848097390e-02,-3.646622432722337881e-02
-5.711354264741837043e-03,1.582867712318088149e-02,-1.379064558003648827e-02
-1.422186468701264368e-02,-4.691002120438824557e-02,-4.941355842886968608e-02
1.236727034720067238e-02,-2.319978124530601080e-02,1.992169631462459289e-02
-7.849409189285755373e-03,8.840994033405180641e-02,2.430042305120152374e-02
-5.380106145041602117e-02,5.043970630317339693e-02,6.026844456141793559e-03
1.406434112292059141e-02,3.538692069816791463e-02,2.266087520578046258e-02
1.807953343229352569e-02,2.358726750394648727e-02,-2.363508844775197987e-02
2.901524066684077127e-02,-4.236158926114074602e-03,-1.699110669844122040e-02
6.156172975037208644e-03,1.220059116514237915e-02,7.353944697993933244e-02
-4.056571197138777660e-03,5.316226982082435104e-02,-1.459652158964346719e-02
4.996746152183058343e-02,-4.379398412007900337e-02,-3.485957728333726607e-02
3.261090649405587460e-02,8.228209467874990704e-03,-4.725508677721274031e-02
-2.551725853024513005e-02,8.202144219284276255e-04,-3.676568674790692964e-02
-6.837164560869726272e-03,3.977691356211704443e-02,-1.616905853393068096e-02
7.941854102834749324e-03,-3.488979154297118610e-03,1.509430569028859595e-03
3.662630897610617137e-02,-3.331501806399384501e-03,-2.817551320616999266e-03
3.695913652767175706e-02,-4.198113719081231210e-02,-1.590867417871278180e-02
-1.462407063862425534e-03,7.369693925768948384e-02,7.979524633746751250e-03
-7.440963708376026331e-03,-5.668946839612674232e-02,2.319089122040625742e-02
-5.548180732425136812e-03,-2.510332466443334493e-02,1.070408519556594606e-01
3.242874670034393697e-02,1.806145828070782056e-02,-2.798627623261633335e-02
3.071709124713283001e-02,8.207443506438652503e-02,-3.227791390522831427e-02
4.307885950520710938e-02,7.309434997903695164e-02,4.016128507147035537e-02
8.432572288889235435e-02,-2.866526859522527601e-02,-1.363401424497639493e-03
2.035457954981785902e-02,-4.292598739247120015e-02,-8.301067371387641641e-03
-1.492339007520864826e-02,3.406064474130213182e-02,1.168949542910590299e-02
-5.834670968656351445e-03,1.983298225633215589e-02,-1.427049739284884898e-02
4.310390887533258053e-02,-3.513093520323645400e-03,-2.528870308573317321e-02
2.638519573889263822e-02,-3.772897343133211484e-02,1.825462039668218281e-02
-3.967609678406730511e-02,-2.316685723554182466e-02,-3.774953105437622858e-02
3.032141667600150511e-02,1.231111424635368892e-02,5.167961159694272342e-04
7.499094027540231799e-02,7.003998123983538882e-02,2.357935095221935784e-02
1.185407489529132809e-02,2.924082601529292072e-02,7.411335801763121837e-03
-2.347067307481497805e-02,-3.189722874450818396e-02,-1.333577117987514750e-02
-3.209684018334803962e-02,-2.853009628263940972e-02,-9.914751713894356250e-03
-2.013943379227444222e-02,4.566974381642795178e-02,2.896707976220276246e-02
-5.038543628794930201e-02,7.657758551007338467e-03,2.387755754279974503e-03
-1.231915735984142474e-02,-1.484532419667998655e-02,7.800706002821460429e-04
5.371164744988283363e-02,-7.878223774776012614e-03,5.434478701740749242e-03
1.755701080647305984e-02,8.485410766129965546e-03,2.789664775435920716e-02
-5.963897290157674225e-02,-1.256568028888159320e-02,-4.895170797678339084e-03
2.110877244728247282e-02,5.036368546552560943e-02,-2.493053741026080711e-02
6.741427958314846758e-02,-8.949989337688700475e-02,4.428772413364184812e-02
1.694117120426151188e-02,-2.674537663740308296e-02,-4.971990479373551014e-02
4.865259201891439927e-02,-3.543961897316890916e-03,-3.308099888678728284e-02
-1.136430811040751131e-02,-8.595088066218674328e-02,-4.954734447660760592e-03
5.368745224047419273e-02,-1.999408810403899631e-02,-3.835393461228253642e-02
4.510026439406401855e-02,3.596884486886836249e-03,1.447604345000496132e-02
-7.137178358415061097e-02,5.095309864964982227e-02,7.089203849196286378e-02
1.494727603883361233e-02,-2.608394263446824762e-02,1.637789800535134968e-02
7.395149606723690552e-03,-1.048994705046447096e-01,-1.495132963493866866e-02
-5.303270290484786084e-03,3.406354494326572623e-03,2.317964566424304124e-02
-4.402928537201753617e-02,-9.711061189089578716e-02,-4.012923148678378127e-02
3.089687760101921671e-02,-3.297843793480695340e-02,-4.863150732957207539e-02
6.111103816528528493e-03,-1.417920182263312026e-02,2.541997425902804003e-02
2.416622751051634641e-02,-1.073306376967182174e-01,-8.351568108491174564e-03
2.155184444498335627e-02,6.013195196864838665e-02,7.570625269430804327e-02
-8.196663236374126735e-03,-1.066038488343050428e-02,7.537513964316190640e-02
4.438349111633221877e-02,3.731271900088694443e-02,-1.511623080277303341e-02
5.317386366129848302e-02,-5.137098190942102766e-02,-6.697494572181957040e-02
2.016953030648743241e-03,1.030547651462564301e-01,-7.505674935922583557e-02
9.216415777038510296e-03,5.333647693405638851e-02,-4.590274357675195455e-02
-4.721153717055955740e-02,5.758727458547575721e-03,-1.791723544830681539e-02
7.600452432028904567e-03,1.875151325030418800e-02,7.160532848837347641e-02
-4.027006524752770392e-03,1.291575340874999422e-02,3.670476169996383931e-03
-1.628428185012082557e-02,1.954557441911486740e-02,-3.939986427481344256e-02
-3.015555348449276349e-02,3.248565846220418524e-03,7.192010251869827495e-03
-4.262044634848489305e-02,-1.671002510713088737e-02,-5.869185471855264263e-02
-1.456140643867137423e-02,8.093222264030479340e-02,-8.170610102106541650e-02
-1.518318511984255957e-02,-5.207477418800722513e-02,1.492248218844964558e-02
8.032633793422508384e-02,-1.174986240435316014e-02,-7.868048427039858739e-02
6.509086604859069813e-02,4.298356342816074711e-03,-1.608216844498790501e-02
-1.200279649909494380e-02,4.580429092198185295e-03,-6.963710117322438609e-02
4.803924216058517299e-02,-1.036411716817307697e-02,7.565026404275839236e-03
2.857280521862916658e-02,-1.803219443878711567e-02,-1.959447793563819269e-03
-4.413262664256214357e-02,-2.085979967495021903e-02,-1.064387629569722542e-02
4.517824014688005818e-02,-4.778561466151563797e-02,-1.341994156357206695e-02
7.575087561532105850e-03,-1.142285848441263081e-02,5.032199491758237303e-02
1.146516531504209423e-02,6.778558641693958886e-02,-2.351905965216368258e-02
-4.521862300954054836e-02,-1.353143365795891027e-02,-1.061372983900781275e-01
-6.569895927926648616e-02,-1.730331437433985445e-02,2.700867172980483955e-02
-6.445229182270101158e-03,-1.481363431593704476e-02,-1.151404232508378145e-01
4.801553519551863408e-02,2.022933494662263951e-02,-3.336468236338820809e-02
