ref_gyro_x (deg/s),ref_gyro_y (deg/s),ref_gyro_z (deg/s)
3.601799649885233882e-03,0.000000000000000000e+00,-2.117390548902823612e-03
3.601799649885233882e-03,-9.020381113359328957e-09,-2.117390548902823612e-03
3.601799649881900611e-03,-2.615910522874169399e-08,-2.117390548908493989e-03
3.601799649872233864e-03,-5.060433804594310304e-08,-2.117390548924938734e-03
3.601799649853532678e-03,-8.162542869477781757e-08,-2.117390548956750093e-03
3.601799649823367571e-03,-1.185647913920759071e-07,-2.117390549008062346e-03
3.601799649779551058e-03,-1.608305989329811060e-07,-2.117390549082596041e-03
3.601799649720115529e-03,-2.078902068331193163e-07,-2.117390549183700062e-03
3.601799649643288963e-03,-2.592642350565498421e-07,-2.117390549314385889e-03
3.601799649547476282e-03,-3.145212415709221650e-07,-2.117390549477367930e-03
3.601799649431244171e-03,-3.732729285471166730e-07,-2.117390549675086508e-03
3.601799649293298961e-03,-4.351698279389215227e-07,-2.117390549909737782e-03
3.601799649132480553e-03,-4.998974185047416662e-07,-2.117390550183300205e-03
3.601799648947741610e-03,-5.671726311271373995e-07,-2.117390550497551868e-03
3.601799648738140177e-03,-6.367407036004088542e-07,-2.117390550854094788e-03
3.601799648502829274e-03,-7.083723499394217233e-07,-2.117390551254370520e-03
3.601799648241047359e-03,-7.818612127575510008e-07,-2.117390551699677072e-03
3.601799647952107480e-03,-8.570215704068300418e-07,-2.117390552191179744e-03
3.601799647635391642e-03,-9.336862734040847153e-07,-2.117390552729931947e-03
3.601799647290343000e-03,-1.011704887214453740e-06,-2.117390553316877370e-03
3.601799646916463253e-03,-1.090942020756558786e-06,-2.117390553952868629e-03
3.601799646513301808e-03,-1.171275822057154053e-06,-2.117390554638669872e-03
3.601799646080451004e-03,-1.252596624340315937e-06,-2.117390555374972384e-03
3.601799645617548284e-03,-1.334805727507707139e-06,-2.117390556162395462e-03
3.601799645124264919e-03,-1.417814301470822522e-06,-2.117390557001497687e-03
3.601799644600306004e-03,-1.501542399150000752e-06,-2.117390557892782129e-03
3.601799644045403960e-03,-1.585918068173545440e-06,-2.117390558836700683e-03
3.601799643459321562e-03,-1.670876551406924077e-06,-2.117390559833660143e-03
3.601799642841841970e-03,-1.756359567429053955e-06,-2.117390560884027835e-03
3.601799642192771329e-03,-1.842314662960957351e-06,-2.117390561988132924e-03
3.601799641511936167e-03,-1.928694630051550062e-06,-2.117390563146272046e-03
3.601799640799178189e-03,-2.015456981544852385e-06,-2.117390564358712351e-03
3.601799640054356884e-03,-2.102563479000478331e-06,-2.117390565625694096e-03
3.601799639277345616e-03,-2.189979707822077632e-06,-2.117390566947434556e-03
3.601799638468029460e-03,-2.277674694872931106e-06,-2.117390568324127153e-03
3.601799637626304767e-03,-2.365620564329986577e-06,-2.117390569755947961e-03
3.601799636752079162e-03,-2.453792227952495309e-06,-2.117390571243053972e-03
3.601799635845269378e-03,-2.542167106323777804e-06,-2.117390572785587868e-03
3.601799634905800390e-03,-2.630724877968818918e-06,-2.117390574383676716e-03
3.601799633933604541e-03,-2.719447253560102181e-06,-2.117390576037436745e-03
3.601799632928621552e-03,-2.808317772702859424e-06,-2.117390577746970301e-03
3.601799631890795477e-03,-2.897321621041793622e-06,-2.117390579512369760e-03
3.601799630820077744e-03,-2.986445465657134061e-06,-2.117390581333720555e-03
3.601799629716422816e-03,-3.075677306921085747e-06,-2.117390583211098149e-03
3.601799628579792963e-03,-3.165006345168626703e-06,-2.117390585144568894e-03
3.601799627410150889e-03,-3.254422860701235753e-06,-2.117390587134195673e-03
3.601799626207464935e-03,-3.343918105790236638e-06,-2.117390589180031830e-03
3.601799624971705176e-03,-3.433484207479820685e-06,-2.117390591282127671e-03
3.601799623702846460e-03,-3.523114080109754324e-06,-2.117390593440528299e-03
3.601799622400864501e-03,-3.612801346585823197e-06,-2.117390595655272312e-03
3.601799621065737179e-03,-3.702540267523233191e-06,-2.117390597926397441e-03
3.601799619697447150e-03,-3.792325677475662747e-06,-2.117390600253934909e-03
3.601799618295977497e-03,-3.882152927541420807e-06,-2.117390602637914208e-03
3.601799616861310442e-03,-3.972017833708980171e-06,-2.117390605078362659e-03
3.601799615393433841e-03,-4.061916630367964238e-06,-2.117390607575301946e-03
3.601799613892334682e-03,-4.151845928469029622e-06,-2.117390610128755488e-03
3.601799612358002126e-03,-4.241802677867763293e-06,-2.117390612738741067e-03
3.601799610790424894e-03,-4.331784133434190477e-06,-2.117390615405277329e-03
3.601799609189595183e-03,-4.421787824551327438e-06,-2.117390618128378154e-03
3.601799607555504316e-03,-4.511811527663888052e-06,-2.117390620908058286e-03
3.601799605888144490e-03,-4.601853241572111504e-06,-2.117390623744330302e-03
3.601799604187509631e-03,-4.691911165196208063e-06,-2.117390626637204610e-03
3.601799602453593235e-03,-4.781983677564362059e-06,-2.117390629586692920e-03
3.601799600686390532e-03,-4.872069319801937438e-06,-2.117390632592803905e-03
3.601799598885895449e-03,-4.962166778921756588e-06,-2.117390635655545805e-03
3.601799597052105385e-03,-5.052274873235357115e-06,-2.117390638774925560e-03
3.601799595185014701e-03,-5.142392539223119732e-06,-2.117390641950950541e-03
3.601799593284620796e-03,-5.232518819717380218e-06,-2.117390645183626387e-03
3.601799591350921502e-03,-5.322652853267240436e-06,-2.117390648472958301e-03
3.601799589383911180e-03,-5.412793864566888505e-06,-2.117390651818951922e-03
3.601799587383589397e-03,-5.502941155841083992e-06,-2.117390655221610286e-03
3.601799585349953117e-03,-5.593094099092117113e-06,-2.117390658680939029e-03
3.601799583283001038e-03,-5.683252129122036020e-06,-2.117390662196939454e-03
3.601799581182730560e-03,-5.773414737252683539e-06,-2.117390665769618065e-03
3.601799579049139079e-03,-5.863581465673714826e-06,-2.117390669398974429e-03
3.601799576882227030e-03,-5.953751902355816389e-06,-2.117390673085013317e-03
3.601799574681992244e-03,-6.043925676472601426e-06,-2.117390676827735595e-03
3.601799572448432119e-03,-6.134102454280319695e-06,-2.117390680627144733e-03
3.601799570181548390e-03,-6.224281935409587088e-06,-2.117390684483241164e-03
3.601799567881338020e-03,-6.314463849527961463e-06,-2.117390688396027926e-03
3.601799565547799710e-03,-6.404647953336235068e-06,-2.117390692365505884e-03
3.601799563180934326e-03,-6.494834027865122111e-06,-2.117390696391676774e-03
3.601799560780738832e-03,-6.585021876042257417e-06,-2.117390700474541029e-03
3.601799558347216264e-03,-6.675211320502509535e-06,-2.117390704614100384e-03
3.601799555880362286e-03,-6.765402201617260326e-06,-2.117390708810355706e-03
3.601799553380177765e-03,-6.855594375720742540e-06,-2.117390713063308297e-03
3.601799550846663135e-03,-6.945787713513771496e-06,-2.117390717372958590e-03
3.601799548279816660e-03,-7.035982098627063702e-06,-2.117390721739307452e-03
3.601799545679638340e-03,-7.126177426328277482e-06,-2.117390726162354884e-03
3.601799543046128177e-03,-7.216373602358284576e-06,-2.117390730642103053e-03
3.601799540379286169e-03,-7.306570541883879122e-06,-2.117390735178550226e-03
3.601799537679111016e-03,-7.396768168555162967e-06,-2.117390739771698571e-03
3.601799534945602718e-03,-7.486966413657229472e-06,-2.117390744421548520e-03
3.601799532178760841e-03,-7.577165215346658167e-06,-2.117390749128099641e-03
3.601799529378585819e-03,-7.667364517964364364e-06,-2.117390753891352801e-03
3.601799526545077651e-03,-7.757564271417167695e-06,-2.117390758711308434e-03
3.601799523678235471e-03,-7.847764430621207603e-06,-2.117390763587966105e-03
3.601799520778059278e-03,-7.937964955001000443e-06,-2.117390768521327116e-03
3.601799517844549939e-03,-8.028165808038609577e-06,-2.117390773511390600e-03
3.601799514877705721e-03,-8.118366956867884408e-06,-2.117390778558157424e-03
3.601799511877527924e-03,-8.208568371909294312e-06,-2.117390783661627154e-03
3.601799508844014813e-03,-8.298770026541249360e-06,-2.117390788821801092e-03
3.601799505777167256e-03,-8.388971896804319801e-06,-2.117390794038678369e-03
3.601799502676986120e-03,-8.479173961135010222e-06,-2.117390799312259854e-03
3.601799499543469670e-03,-8.569376200126177967e-06,-2.117390804642544679e-03
3.601799496376619641e-03,-8.659578596311385331e-06,-2.117390810029534144e-03
3.601799493176434299e-03,-8.749781133970835836e-06,-2.117390815473227383e-03
3.601799489942914077e-03,-8.839983798956710959e-06,-2.117390820973624830e-03
3.601799486676058974e-03,-8.930186578535965897e-06,-2.117390826530727351e-03
3.601799483375868558e-03,-9.020389461248864903e-06,-2.117390832144533646e-03
3.601799480042344563e-03,-9.110592436781631573e-06,-2.117390837815045015e-03
3.601799476675484387e-03,-9.200795495851869007e-06,-2.117390843542260159e-03
3.601799473275289765e-03,-9.290998630105418301e-06,-2.117390849326179943e-03
3.601799469841760262e-03,-9.381201832023527124e-06,-2.117390855166804368e-03
3.601799466374895446e-03,-9.471405094839320413e-06,-2.117390861064133867e-03
3.601799462874695750e-03,-9.561608412462605864e-06,-2.117390867018168008e-03
3.601799459341161608e-03,-9.651811779412197700e-06,-2.117390873028906790e-03
3.601799455774291284e-03,-9.742015190755038719e-06,-2.117390879096350213e-03
3.601799452174086515e-03,-9.832218642051363374e-06,-2.117390885220497843e-03
3.601799448540546865e-03,-9.922422129305388604e-06,-2.117390891401351415e-03
3.601799444873671468e-03,-1.001262564892089034e-05,-2.117390897638909194e-03
3.601799441173461191e-03,-1.010282919766128116e-05,-2.117390903933172048e-03
3.601799437439916467e-03,-1.019303277261361644e-05,-2.117390910284139543e-03
3.601799433673035997e-03,-1.028323637115624791e-05,-2.117390916691812112e-03
3.601799429872820646e-03,-1.037343999092968396e-05,-2.117390923156189757e-03
3.601799426039269114e-03,-1.046364362981038251e-05,-2.117390929677272476e-03
3.601799422172383570e-03,-1.055384728588715433e-05,-2.117390936255059836e-03
3.601799418272162278e-03,-1.064405095743991604e-05,-2.117390942889552270e-03
3.601799414338606540e-03,-1.073425464292059636e-05,-2.117390949580749780e-03
3.601799410371714621e-03,-1.082445834093592603e-05,-2.117390956328651496e-03
3.601799406371488689e-03,-1.091466205023195749e-05,-2.117390963133259155e-03
3.601799402337926576e-03,-1.100486576968013453e-05,-2.117390969994571454e-03
3.601799398271029583e-03,-1.109506949826475452e-05,-2.117390976912587961e-03
3.601799394170796843e-03,-1.118527323507167919e-05,-2.117390983887311277e-03
3.601799390037229657e-03,-1.127547697927818543e-05,-2.117390990918737500e-03
3.601799385870327590e-03,-1.136568073014380720e-05,-2.117390998006870098e-03
3.601799381670089777e-03,-1.145588448700213286e-05,-2.117391005151706904e-03
3.601799377436516649e-03,-1.154608824925338008e-05,-2.117391012353249651e-03
3.601799373169608642e-03,-1.163629201635775170e-05,-2.117391019611496606e-03
3.601799368869364887e-03,-1.172649578782941503e-05,-2.117391026926449069e-03
3.601799364535786252e-03,-1.181669956323112319e-05,-2.117391034298106173e-03
3.601799360168872303e-03,-1.190690334216934807e-05,-2.117391041726468786e-03
3.601799355768623041e-03,-1.199710712428991470e-05,-2.117391049211536039e-03
3.601799351335038465e-03,-1.208731090927405408e-05,-2.117391056753308368e-03
3.601799346868119443e-03,-1.217751469683487615e-05,-2.117391064351785770e-03
3.601799342367864240e-03,-1.226771848671417309e-05,-2.117391072006968248e-03
3.601799337834274157e-03,-1.235792227867955972e-05,-2.117391079718855800e-03
3.601799333267348760e-03,-1.244812607252187818e-05,-2.117391087487447993e-03
3.601799328667087616e-03,-1.253832986805288388e-05,-2.117391095312745695e-03
3.601799324033492459e-03,-1.262853366510316175e-05,-2.117391103194748471e-03
3.601799319366561121e-03,-1.271873746352022554e-05,-2.117391111133455888e-03
3.601799314666295337e-03,-1.280894126316683389e-05,-2.117391119128868380e-03
3.601799309932693371e-03,-1.289914506391946906e-05,-2.117391127180985946e-03
3.601799305165757394e-03,-1.298934886566696137e-05,-2.117391135289808587e-03
3.601799300365484801e-03,-1.307955266830925081e-05,-2.117391143455337171e-03
3.601799295531878196e-03,-1.316975647175628762e-05,-2.117391151677569527e-03
3.601799290664935409e-03,-1.325996027592701244e-05,-2.117391159956507393e-03
3.601799285764657743e-03,-1.335016408074847540e-05,-2.117391168292149899e-03
3.601799280831045197e-03,-1.344036788615502298e-05,-2.117391176684497913e-03
3.601799275864096470e-03,-1.353057169208754245e-05,-2.117391185133551002e-03
3.601799270863813730e-03,-1.362077549849285030e-05,-2.117391193639308732e-03
3.601799265830195242e-03,-1.371097930532307223e-05,-2.117391202201771971e-03
3.601799260763241008e-03,-1.380118311253511289e-05,-2.117391210820939850e-03
3.601799255662951893e-03,-1.389138692009018157e-05,-2.117391219496813238e-03
3.601799250529327898e-03,-1.398159072795337034e-05,-2.117391228229391267e-03
3.601799245362368590e-03,-1.407179453609325597e-05,-2.117391237018674370e-03
3.601799240162073968e-03,-1.416199834448154588e-05,-2.117391245864662548e-03
3.601799234928443165e-03,-1.425220215309278502e-05,-2.117391254767355801e-03
3.601799229661477916e-03,-1.434240596190405099e-05,-2.117391263726754128e-03
3.601799224361177353e-03,-1.443260977089471177e-05,-2.117391272742857530e-03
3.601799219027541910e-03,-1.452281358004620377e-05,-2.117391281815665140e-03
3.601799213660570719e-03,-1.461301738934180487e-05,-2.117391290945178691e-03
3.601799208260263781e-03,-1.470322119876646161e-05,-2.117391300131397317e-03
3.601799202826622397e-03,-1.479342500830662823e-05,-2.117391309374320584e-03
3.601799197359645700e-03,-1.488362881795010408e-05,-2.117391318673949360e-03
3.601799191859333688e-03,-1.497383262768591837e-05,-2.117391328030282342e-03
3.601799186325686797e-03,-1.506403643750416760e-05,-2.117391337443321267e-03
3.601799180758704158e-03,-1.515424024739596301e-05,-2.117391346913065266e-03
3.601799175158386206e-03,-1.524444405735328319e-05,-2.117391356439513473e-03
3.601799169524733373e-03,-1.533464786736891313e-05,-2.117391366022667188e-03
3.601799163857745227e-03,-1.542485167743634590e-05,-2.117391375662525978e-03
3.601799158157421767e-03,-1.551505548754973868e-05,-2.117391385359089408e-03
3.601799152423762994e-03,-1.560525929770381276e-05,-2.117391395112358347e-03
3.601799146656768907e-03,-1.569546310789382137e-05,-2.117391404922331927e-03
3.601799140856439506e-03,-1.578566691811548529e-05,-2.117391414789011449e-03
3.601799135022775225e-03,-1.587587072836495560e-05,-2.117391424712395179e-03
3.601799129155775197e-03,-1.596607453863875271e-05,-2.117391434692483983e-03
3.601799123255440289e-03,-1.605627834893375274e-05,-2.117391444729277861e-03
3.601799117321770067e-03,-1.614648215924713678e-05,-2.117391454822776381e-03
3.601799111354764531e-03,-1.623668596957636711e-05,-2.117391464972980409e-03
3.601799105354423682e-03,-1.632688977991914657e-05,-2.117391475179890379e-03
3.601799099320747519e-03,-1.641709359027341181e-05,-2.117391485443504123e-03
3.601799093253736043e-03,-1.650729740063730611e-05,-2.117391495763823375e-03
3.601799087153389686e-03,-1.659750121100914220e-05,-2.117391506140846834e-03
3.601799081019707582e-03,-1.668770502138740218e-05,-2.117391516574576669e-03
3.601799074852690598e-03,-1.677790883177072742e-05,-2.117391527065010711e-03
3.601799068652338301e-03,-1.686811264215787786e-05,-2.117391537612150262e-03
3.601799062418650690e-03,-1.695831645254773203e-05,-2.117391548215994020e-03
3.601799056151627765e-03,-1.704852026293929382e-05,-2.117391558876544153e-03
3.601799049851269526e-03,-1.713872407333164505e-05,-2.117391569593798061e-03
3.601799043517576408e-03,-1.722892788372396578e-05,-2.117391580367757476e-03
3.601799037150547542e-03,-1.731913169411551063e-05,-2.117391591198421533e-03
3.601799030750183796e-03,-1.740933550450560874e-05,-2.117391602085791098e-03
3.601799024316484736e-03,-1.749953931489364349e-05,-2.117391613029865303e-03
3.601799017849450363e-03,-1.758974312527906937e-05,-2.117391624030645451e-03
3.601799011349080676e-03,-1.767994693566137817e-05,-2.117391635088129373e-03
3.601799004815375675e-03,-1.777015074604011927e-05,-2.117391646202319237e-03
3.601798998248335361e-03,-1.786035455641487931e-05,-2.117391657373213741e-03
3.601798991647959733e-03,-1.795055836678528222e-05,-2.117391668600813754e-03
3.601798985014249225e-03,-1.804076217715098240e-05,-2.117391679885117974e-03
3.601798978347203403e-03,-1.813096598751167153e-05,-2.117391691226127269e-03
3.601798971646822268e-03,-1.822116979786707179e-05,-2.117391702623842072e-03
3.601798964913104951e-03,-1.831137360821691212e-05,-2.117391714078261950e-03
3.601798958146054056e-03,-1.840157741856095875e-05,-2.117391725589386903e-03
3.601798951345666112e-03,-1.849178122889899483e-05,-2.117391737157216930e-03
3.601798944511943722e-03,-1.858198503923083402e-05,-2.117391748781750731e-03
3.601798937644886452e-03,-1.867218884955627981e-05,-2.117391760462990907e-03
3.601798930744493435e-03,-1.876239265987516278e-05,-2.117391772200935725e-03
3.601798923810765538e-03,-1.885259647018733048e-05,-2.117391783995586051e-03
3.601798916843701459e-03,-1.894280028049263721e-05,-2.117391795846941017e-03
3.601798909843302934e-03,-1.903300409079095422e-05,-2.117391807755000625e-03
3.601798902809569096e-03,-1.912320790108215955e-05,-2.117391819719765308e-03
3.601798895742499510e-03,-1.921341171136612782e-05,-2.117391831741235499e-03
3.601798888642095912e-03,-1.930361552164276757e-05,-2.117391843819410330e-03
3.601798881508355699e-03,-1.939381933191196359e-05,-2.117391855954290237e-03
3.601798874341280605e-03,-1.948402314217363457e-05,-2.117391868145875218e-03
3.601798867140869765e-03,-1.957422695242768226e-05,-2.117391880394165274e-03
3.601798859907124478e-03,-1.966443076267403549e-05,-2.117391892699160404e-03
3.601798852640043878e-03,-1.975463457291260619e-05,-2.117391905060860609e-03
3.601798845339628397e-03,-1.984483838314331642e-05,-2.117391917479265889e-03
3.601798838005876302e-03,-1.993504219336610859e-05,-2.117391929954375810e-03
3.601798830638790194e-03,-2.002524600358090138e-05,-2.117391942486190805e-03
3.601798823238367472e-03,-2.011544981378763381e-05,-2.117391955074710876e-03
3.601798815804609869e-03,-2.020565362398625504e-05,-2.117391967719936454e-03
3.601798808337517820e-03,-2.029585743417669733e-05,-2.117391980421866240e-03
3.601798800837089590e-03,-2.038606124435889968e-05,-2.117391993180501534e-03
3.601798793303326481e-03,-2.047626505453281466e-05,-2.117392005995841903e-03
3.601798785736228491e-03,-2.056646886469838128e-05,-2.117392018867887346e-03
3.601798778135794320e-03,-2.065667267485555889e-05,-2.117392031796637430e-03
3.601798770502026136e-03,-2.074687648500428649e-05,-2.117392044782092590e-03
3.601798762834921772e-03,-2.083708029514451667e-05,-2.117392057824252823e-03
3.601798755134482093e-03,-2.092728410527620197e-05,-2.117392070923118132e-03
3.601798747400707101e-03,-2.101748791539929836e-05,-2.117392084078688515e-03
3.601798739633597663e-03,-2.110769172551376179e-05,-2.117392097290963972e-03
3.601798731833152044e-03,-2.119789553561953805e-05,-2.117392110559944505e-03
3.601798723999371111e-03,-2.128809934571659326e-05,-2.117392123885629678e-03
3.601798716132255298e-03,-2.137830315580488338e-05,-2.117392137268020360e-03
3.601798708231804171e-03,-2.146850696588435757e-05,-2.117392150707115249e-03
3.601798700298017731e-03,-2.155871077595497519e-05,-2.117392164202916514e-03
3.601798692330895977e-03,-2.164891458601669896e-05,-2.117392177755421552e-03
3.601798684330438042e-03,-2.173911839606948484e-05,-2.117392191364632099e-03
3.601798676296646528e-03,-2.182932220611329217e-05,-2.117392205030547286e-03
3.601798668229518399e-03,-2.191952601614807690e-05,-2.117392218753167982e-03
3.601798660129055391e-03,-2.200972982617380177e-05,-2.117392232532493319e-03
3.601798651995257502e-03,-2.209993363619042951e-05,-2.117392246368523297e-03
3.601798643828123432e-03,-2.219013744619791268e-05,-2.117392260261259217e-03
3.601798635627654916e-03,-2.228034125619621740e-05,-2.117392274210699778e-03
3.601798627393851086e-03,-2.237054506618530640e-05,-2.117392288216845848e-03
3.601798619126711076e-03,-2.246074887616513903e-05,-2.117392302279696558e-03
3.601798610826237052e-03,-2.255095268613567123e-05,-2.117392316399251042e-03
3.601798602492426414e-03,-2.264115649609686575e-05,-2.117392330575511902e-03
3.601798594125280896e-03,-2.273136030604868530e-05,-2.117392344808477402e-03
3.601798585724800932e-03,-2.282156411599109262e-05,-2.117392359098147978e-03
3.601798577290984786e-03,-2.291176792592404705e-05,-2.117392373444523627e-03
3.601798568823833327e-03,-2.300197173584751472e-05,-2.117392387847604352e-03
3.601798560323347421e-03,-2.309217554576145496e-05,-2.117392402307389718e-03
3.601798551789525335e-03,-2.318237935566582372e-05,-2.117392416823880592e-03
3.601798543222368369e-03,-2.327258316556059053e-05,-2.117392431397076107e-03
3.601798534621876088e-03,-2.336278697544570793e-05,-2.117392446026977130e-03
3.601798525988048495e-03,-2.345299078532115221e-05,-2.117392460713582794e-03
3.601798517320885587e-03,-2.354319459518687256e-05,-2.117392475456893533e-03
3.601798508620386498e-03,-2.363339840504283848e-05,-2.117392490256909347e-03
3.601798499886552964e-03,-2.372360221488900930e-05,-2.117392505113628934e-03
3.601798491119384115e-03,-2.381380602472535116e-05,-2.117392520027055330e-03
3.601798482318880387e-03,-2.390400983455181661e-05,-2.117392534997185934e-03
3.601798473485040911e-03,-2.399421364436838194e-05,-2.117392550024021179e-03
3.601798464617865687e-03,-2.408441745417499633e-05,-2.117392565107561932e-03
3.601798455717355584e-03,-2.417462126397162928e-05,-2.117392580247807327e-03
3.601798446783510601e-03,-2.426482507375823675e-05,-2.117392595444758229e-03
3.601798437816329437e-03,-2.435502888353479164e-05,-2.117392610698414206e-03
3.601798428815812959e-03,-2.444523269330124650e-05,-2.117392626008774825e-03
3.601798419781962468e-03,-2.453543650305756746e-05,-2.117392641375840517e-03
3.601798410714775363e-03,-2.462564031280371725e-05,-2.117392656799610851e-03
3.601798401614253377e-03,-2.471584412253966198e-05,-2.117392672280087127e-03
3.601798392480395645e-03,-2.480604793226536101e-05,-2.117392687817267610e-03
3.601798383313203466e-03,-2.489625174198076689e-05,-2.117392703411153168e-03
3.601798374112675973e-03,-2.498645555168585929e-05,-2.117392719061743367e-03
3.601798364878811866e-03,-2.507665936138058741e-05,-2.117392734769039508e-03
3.601798355611613746e-03,-2.516686317106492412e-05,-2.117392750533039856e-03
3.601798346311080312e-03,-2.525706698073882538e-05,-2.117392766353745712e-03
3.601798336977210697e-03,-2.534727079040225055e-05,-2.117392782231156210e-03
3.601798327610006203e-03,-2.543747460005516911e-05,-2.117392798165271782e-03
3.601798318209466394e-03,-2.552767840969754042e-05,-2.117392814156092429e-03
3.601798308775590839e-03,-2.561788221932933060e-05,-2.117392830203618584e-03
3.601798299308380837e-03,-2.570808602895050237e-05,-2.117392846307848946e-03
3.601798289807835087e-03,-2.579828983856101169e-05,-2.117392862468784383e-03
3.601798280273954024e-03,-2.588849364816081790e-05,-2.117392878686424895e-03
3.601798270706737647e-03,-2.597869745774989729e-05,-2.117392894960770482e-03
3.601798261106185957e-03,-2.606890126732820919e-05,-2.117392911291821143e-03
3.601798251472298085e-03,-2.615910507689570618e-05,-2.117392927679576878e-03
3.601798241805075768e-03,-2.624930888645235098e-05,-2.117392944124037255e-03
3.601798232104518570e-03,-2.633951269599811649e-05,-2.117392960625203140e-03
3.601798222370625625e-03,-2.642971650553296205e-05,-2.117392977183073666e-03
3.601798212603396932e-03,-2.651992031505684701e-05,-2.117392993797649267e-03
3.601798202802832926e-03,-2.661012412456973747e-05,-2.117393010468929943e-03
3.601798192968934473e-03,-2.670032793407159280e-05,-2.117393027196915259e-03
3.601798183101700274e-03,-2.679053174356238248e-05,-2.117393043981605650e-03
3.601798173201130326e-03,-2.688073555304205231e-05,-2.117393060823001116e-03
3.601798163267225499e-03,-2.697093936251058536e-05,-2.117393077721101656e-03
3.601798153299984491e-03,-2.706114317196793079e-05,-2.117393094675907271e-03
3.601798143299408603e-03,-2.715134698141405135e-05,-2.117393111687417961e-03
3.601798133265497835e-03,-2.724155079084891653e-05,-2.117393128755633291e-03
3.601798123198251753e-03,-2.733175460027248568e-05,-2.117393145880553697e-03
3.601798113097669923e-03,-2.742195840968472153e-05,-2.117393163062178743e-03
3.601798102963753214e-03,-2.751216221908558341e-05,-2.117393180300509298e-03
3.601798092796500757e-03,-2.760236602847505102e-05,-2.117393197595544927e-03
3.601798082595912987e-03,-2.769256983785306335e-05,-2.117393214947285631e-03
3.601798072361989903e-03,-2.778277364721957974e-05,-2.117393232355730542e-03
3.601798062094731506e-03,-2.787297745657459682e-05,-2.117393249820881396e-03
3.601798051794137794e-03,-2.796318126591804682e-05,-2.117393267342736456e-03
3.601798041460208769e-03,-2.805338507524989585e-05,-2.117393284921297025e-03
3.601798031092944864e-03,-2.814358888457012359e-05,-2.117393302556562235e-03
3.601798020692345212e-03,-2.823379269387867244e-05,-2.117393320248532086e-03
3.601798010258409812e-03,-2.832399650317551869e-05,-2.117393337997207445e-03
3.601797999791139099e-03,-2.841420031246061489e-05,-2.117393355802587879e-03
3.601797989290533072e-03,-2.850440412173392717e-05,-2.117393373664672954e-03
3.601797978756592165e-03,-2.859460793099542503e-05,-2.117393391583463538e-03
3.601797968189315510e-03,-2.868481174024505766e-05,-2.117393409558958328e-03
3.601797957588703976e-03,-2.877501554948279795e-05,-2.117393427591159061e-03
3.601797946954757128e-03,-2.886521935870861201e-05,-2.117393445680063567e-03
3.601797936287474532e-03,-2.895542316792245241e-05,-2.117393463825674015e-03
3.601797925586856623e-03,-2.904562697712428188e-05,-2.117393482027989104e-03
3.601797914852903834e-03,-2.913583078631406655e-05,-2.117393500287008835e-03
3.601797904085614864e-03,-2.922603459549177253e-05,-2.117393518602734507e-03
3.601797893284991881e-03,-2.931623840465736255e-05,-2.117393536975164386e-03
3.601797882451031850e-03,-2.940644221381078578e-05,-2.117393555404298907e-03
3.601797871583736939e-03,-2.949664602295202191e-05,-2.117393573890139370e-03
3.601797860683107148e-03,-2.958684983208102349e-05,-2.117393592432684039e-03
3.601797849749141609e-03,-2.967705364119775665e-05,-2.117393611031934218e-03
3.601797838781841191e-03,-2.976725745030218073e-05,-2.117393629687889037e-03
3.601797827781205458e-03,-2.985746125939426184e-05,-2.117393648400548931e-03
3.601797816747233979e-03,-2.994766506847395933e-05,-2.117393667169913465e-03
3.601797805679927186e-03,-3.003786887754123592e-05,-2.117393685995983509e-03
3.601797794579285079e-03,-3.012807268659606114e-05,-2.117393704878758193e-03
3.601797783445307658e-03,-3.021827649563838415e-05,-2.117393723818237518e-03
3.601797772277994924e-03,-3.030848030466818123e-05,-2.117393742814422785e-03
3.601797761077347310e-03,-3.039868411368540834e-05,-2.117393761867311826e-03
3.601797749843363081e-03,-3.048888792269002822e-05,-2.117393780976906809e-03
3.601797738576043972e-03,-3.057909173168201037e-05,-2.117393800143206432e-03
3.601797727275389549e-03,-3.066929554066130057e-05,-2.117393819366211131e-03
3.601797715941400680e-03,-3.075949934962787850e-05,-2.117393838645920470e-03
3.601797704574075630e-03,-3.084970315858169673e-05,-2.117393857982334884e-03
3.601797693173414833e-03,-3.093990696752272137e-05,-2.117393877375454807e-03
3.601797681739419155e-03,-3.103011077645091855e-05,-2.117393896825278937e-03
3.601797670272088598e-03,-3.112031458536625438e-05,-2.117393916331808575e-03
3.601797658771421860e-03,-3.121051839426866787e-05,-2.117393935895043287e-03
3.601797647237419808e-03,-3.130072220315813870e-05,-2.117393955514982641e-03
3.601797635670082442e-03,-3.139092601203463976e-05,-2.117393975191626636e-03
3.601797624069410196e-03,-3.148112982089811007e-05,-2.117393994924976139e-03
3.601797612435402203e-03,-3.157133362974853607e-05,-2.117394014715030717e-03
3.601797600768059330e-03,-3.166153743858586355e-05,-2.117394034561789068e-03
3.601797589067380276e-03,-3.175174124741005863e-05,-2.117394054465253361e-03
3.601797577333365908e-03,-3.184194505622108744e-05,-2.117394074425423163e-03
3.601797565566016227e-03,-3.193214886501891608e-05,-2.117394094442297172e-03
3.601797553765331231e-03,-3.202235267380348357e-05,-2.117394114515876256e-03
3.601797541931311356e-03,-3.211255648257478992e-05,-2.117394134646159547e-03
3.601797530063955300e-03,-3.220276029133276735e-05,-2.117394154833149213e-03
3.601797518163264364e-03,-3.229296410007739555e-05,-2.117394175076842654e-03
3.601797506229237680e-03,-3.238316790880863385e-05,-2.117394195377241602e-03
3.601797494261876550e-03,-3.247337171752643481e-05,-2.117394215734345192e-03
3.601797482261179673e-03,-3.256357552623076457e-05,-2.117394236148153856e-03
3.601797470227147049e-03,-3.265377933492159601e-05,-2.117394256618668029e-03
3.601797458159779544e-03,-3.274398314359888847e-05,-2.117394277145886409e-03
3.601797446059075859e-03,-3.283418695226259453e-05,-2.117394297729810297e-03
3.601797433925036859e-03,-3.292439076091268030e-05,-2.117394318370438826e-03
3.601797421757662546e-03,-3.301459456954911867e-05,-2.117394339067772430e-03
3.601797409556953787e-03,-3.310479837817186221e-05,-2.117394359821810675e-03
3.601797397322909280e-03,-3.319500218678087027e-05,-2.117394380632554429e-03
3.601797385055528159e-03,-3.328520599537611573e-05,-2.117394401500002823e-03
3.601797372754812158e-03,-3.337540980395755795e-05,-2.117394422424156292e-03
3.601797360420760843e-03,-3.346561361252514271e-05,-2.117394443405014835e-03
3.601797348053375081e-03,-3.355581742107887000e-05,-2.117394464442577586e-03
3.601797335652653573e-03,-3.364602122961867208e-05,-2.117394485536845845e-03
3.601797323218595449e-03,-3.373622503814451505e-05,-2.117394506687819179e-03
3.601797310751203313e-03,-3.382642884665637182e-05,-2.117394527895496720e-03
3.601797298250475864e-03,-3.391663265515419494e-05,-2.117394549159880637e-03
3.601797285716412233e-03,-3.400683646363795054e-05,-2.117394570480968328e-03
3.601797273149013288e-03,-3.409704027210761152e-05,-2.117394591858761093e-03
3.601797260548278597e-03,-3.418724408056312365e-05,-2.117394613293258933e-03
3.601797247914209025e-03,-3.427744788900445307e-05,-2.117394634784461847e-03
3.601797235246804573e-03,-3.436765169743156588e-05,-2.117394656332369837e-03
3.601797222546063940e-03,-3.445785550584442143e-05,-2.117394677936982033e-03
3.601797209811987994e-03,-3.454805931424299940e-05,-2.117394699598299738e-03
3.601797197044576734e-03,-3.463826312262722524e-05,-2.117394721316322517e-03
3.601797184243830160e-03,-3.472846693099711251e-05,-2.117394743091049504e-03
3.601797171409747839e-03,-3.481867073935257989e-05,-2.117394764922482433e-03
3.601797158542330637e-03,-3.490887454769361383e-05,-2.117394786810619569e-03
3.601797145641577689e-03,-3.499907835602016011e-05,-2.117394808755462213e-03
3.601797132707488993e-03,-3.508928216433219842e-05,-2.117394830757009933e-03
3.601797119740065417e-03,-3.517948597262966775e-05,-2.117394852815261859e-03
3.601797106739306528e-03,-3.526968978091256135e-05,-2.117394874930219294e-03
3.601797093705211891e-03,-3.535989358918082499e-05,-2.117394897101881369e-03
3.601797080637781506e-03,-3.545009739743442480e-05,-2.117394919330248086e-03
3.601797067537016242e-03,-3.554030120567330656e-05,-2.117394941615320311e-03
3.601797054402915664e-03,-3.563050501389746351e-05,-2.117394963957097177e-03
3.601797041235479339e-03,-3.572070882210682787e-05,-2.117394986355578684e-03
3.601797028034707266e-03,-3.581091263030138609e-05,-2.117395008810766133e-03
3.601797014800600313e-03,-3.590111643848109074e-05,-2.117395031322657356e-03
3.601797001533158047e-03,-3.599132024664589439e-05,-2.117395053891254087e-03
3.601796988232380467e-03,-3.608152405479577671e-05,-2.117395076516555459e-03
3.601796974898266706e-03,-3.617172786293070382e-05,-2.117395099198561906e-03
3.601796961530817631e-03,-3.626193167105061472e-05,-2.117395121937273861e-03
3.601796948130033676e-03,-3.635213547915548910e-05,-2.117395144732689589e-03
3.601796934695913974e-03,-3.644233928724527951e-05,-2.117395167584811260e-03
3.601796921228459392e-03,-3.653254309531995885e-05,-2.117395190493637572e-03
3.601796907727668629e-03,-3.662274690337949325e-05,-2.117395213459168091e-03
3.601796894193542986e-03,-3.671295071142382848e-05,-2.117395236481404985e-03
3.601796880626081596e-03,-3.680315451945294423e-05,-2.117395259560346087e-03
3.601796867025284458e-03,-3.689335832746677951e-05,-2.117395282695991830e-03
3.601796853391152440e-03,-3.698356213546532753e-05,-2.117395305888342648e-03
3.601796839723684675e-03,-3.707376594344853409e-05,-2.117395329137398540e-03
3.601796826022881596e-03,-3.716396975141635176e-05,-2.117395352443159507e-03
3.601796812288743637e-03,-3.725417355936876698e-05,-2.117395375805624681e-03
3.601796798521269063e-03,-3.734437736730571877e-05,-2.117395399224795364e-03
3.601796784720459610e-03,-3.743458117522719357e-05,-2.117395422700670687e-03
3.601796770886314843e-03,-3.752478498313313040e-05,-2.117395446233251519e-03
3.601796757018834762e-03,-3.761498879102350215e-05,-2.117395469822536559e-03
3.601796743118019367e-03,-3.770519259889828172e-05,-2.117395493468527106e-03
3.601796729183867792e-03,-3.779539640675740812e-05,-2.117395517171221861e-03
3.601796715216381336e-03,-3.788560021460086780e-05,-2.117395540930622558e-03
3.601796701215559567e-03,-3.797580402242860655e-05,-2.117395564746727028e-03
3.601796687181402050e-03,-3.806600783024059726e-05,-2.117395588619537007e-03
3.601796673113909220e-03,-3.815621163803679927e-05,-2.117395612549052494e-03
3.601796659013080642e-03,-3.824641544581717872e-05,-2.117395636535271755e-03
3.601796644878916317e-03,-3.833661925358168137e-05,-2.117395660578196524e-03
3.601796630711417112e-03,-3.842682306133029369e-05,-2.117395684677825501e-03
3.601796616510582159e-03,-3.851702686906296146e-05,-2.117395708834160419e-03
3.601796602276411893e-03,-3.860723067677965757e-05,-2.117395733047199545e-03
3.601796588008906314e-03,-3.869743448448032783e-05,-2.117395757316944179e-03
3.601796573708065854e-03,-3.878763829216495866e-05,-2.117395781643393454e-03
3.601796559373888779e-03,-3.887784209983348910e-05,-2.117395806026547370e-03
3.601796545006376825e-03,-3.896804590748590558e-05,-2.117395830466406795e-03
3.601796530605529557e-03,-3.905824971512215389e-05,-2.117395854962970860e-03
3.601796516171346108e-03,-3.914845352274220016e-05,-2.117395879516239567e-03
3.601796501703827345e-03,-3.923865733034599695e-05,-2.117395904126213348e-03
3.601796487202973702e-03,-3.932886113793353071e-05,-2.117395928792892203e-03
3.601796472668784745e-03,-3.941906494550475400e-05,-2.117395953516275266e-03
3.601796458101259608e-03,-3.950926875305961939e-05,-2.117395978296364271e-03
3.601796443500400024e-03,-3.959947256059808622e-05,-2.117396003133157484e-03
3.601796428866204259e-03,-3.968967636812014771e-05,-2.117396028026655771e-03
3.601796414198672313e-03,-3.977988017562573611e-05,-2.117396052976858699e-03
3.601796399497805487e-03,-3.987008398311482431e-05,-2.117396077983767569e-03
3.601796384763603347e-03,-3.996028779058736488e-05,-2.117396103047380213e-03
3.601796369996065894e-03,-4.005049159804334425e-05,-2.117396128167698365e-03
3.601796355195193127e-03,-4.014069540548270145e-05,-2.117396153344721157e-03
3.601796340360984179e-03,-4.023089921290541615e-05,-2.117396178578449025e-03
3.601796325493439484e-03,-4.032110302031144091e-05,-2.117396203868881100e-03
3.601796310592560342e-03,-4.041130682770072830e-05,-2.117396229216019117e-03
3.601796295658345019e-03,-4.050151063507325799e-05,-2.117396254619861341e-03
3.601796280690794383e-03,-4.059171444242898932e-05,-2.117396280080408640e-03
3.601796265689908433e-03,-4.068191824976788841e-05,-2.117396305597661448e-03
3.601796250655687603e-03,-4.077212205708990783e-05,-2.117396331171618462e-03
3.601796235588130592e-03,-4.086232586439502047e-05,-2.117396356802280551e-03
3.601796220487238267e-03,-4.095252967168316535e-05,-2.117396382489647282e-03
3.601796205353010628e-03,-4.104273347895433569e-05,-2.117396408233718653e-03
3.601796190185445942e-03,-4.113293728620848405e-05,-2.117396434034495532e-03
3.601796174984547676e-03,-4.122314109344556301e-05,-2.117396459891977053e-03
3.601796159750313663e-03,-4.131334490066554545e-05,-2.117396485806164082e-03
3.601796144482743468e-03,-4.140354870786838395e-05,-2.117396511777055318e-03
3.601796129181837960e-03,-4.149375251505405817e-05,-2.117396537804651195e-03
3.601796113847597139e-03,-4.158395632222250035e-05,-2.117396563888952581e-03
3.601796098480020570e-03,-4.167416012937371050e-05,-2.117396590029959041e-03
3.601796083079109555e-03,-4.176436393650763439e-05,-2.117396616227669708e-03
3.601796067644861491e-03,-4.185456774362423816e-05,-2.117396642482085884e-03
3.601796052177278981e-03,-4.194477155072346081e-05,-2.117396668793206701e-03
3.601796036676360290e-03,-4.203497535780529557e-05,-2.117396695161032159e-03
3.601796021142106285e-03,-4.212517916486968145e-05,-2.117396721585562691e-03
3.601796005574517401e-03,-4.221538297191660489e-05,-2.117396748066797431e-03
3.601795989973592335e-03,-4.230558677894601170e-05,-2.117396774604737679e-03
3.601795974339331956e-03,-4.239579058595787476e-05,-2.117396801199383002e-03
3.601795958671736263e-03,-4.248599439295215342e-05,-2.117396827850732965e-03
3.601795942970804822e-03,-4.257619819992880024e-05,-2.117396854558788438e-03
3.601795927236537635e-03,-4.266640200688778811e-05,-2.117396881323547683e-03
3.601795911468935567e-03,-4.275660581382907639e-05,-2.117396908145012871e-03
3.601795895667997318e-03,-4.284680962075261763e-05,-2.117396935023181832e-03
3.601795879833723756e-03,-4.293701342765840506e-05,-2.117396961958056736e-03
3.601795863966115313e-03,-4.302721723454637091e-05,-2.117396988949635846e-03
3.601795848065170256e-03,-4.311742104141648132e-05,-2.117397015997920032e-03
3.601795832130890319e-03,-4.320762484826872271e-05,-2.117397043102909292e-03
3.601795816163275068e-03,-4.329782865510302056e-05,-2.117397070264602759e-03
3.601795800162324070e-03,-4.338803246191937486e-05,-2.117397097483002168e-03
3.601795784128037324e-03,-4.347823626871771108e-05,-2.117397124758105785e-03
3.601795768060415699e-03,-4.356844007549801566e-05,-2.117397152089914043e-03
3.601795751959457892e-03,-4.365864388226025472e-05,-2.117397179478427809e-03
3.601795735825164772e-03,-4.374884768900438083e-05,-2.117397206923645782e-03
3.601795719657535470e-03,-4.383905149573036689e-05,-2.117397234425569263e-03
3.601795703456571723e-03,-4.392925530243816545e-05,-2.117397261984196952e-03
3.601795687222272228e-03,-4.401945910912772231e-05,-2.117397289599529716e-03
3.601795670954637419e-03,-4.410966291579903069e-05,-2.117397317271567988e-03
3.601795654653666429e-03,-4.419986672245203638e-05,-2.117397345000310467e-03
3.601795638319359259e-03,-4.429007052908671228e-05,-2.117397372785758021e-03
3.601795621951718075e-03,-4.438027433570301096e-05,-2.117397400627910650e-03
3.601795605550740711e-03,-4.447047814230089852e-05,-2.117397428526767919e-03
3.601795589116427599e-03,-4.456068194888034787e-05,-2.117397456482329830e-03
3.601795572648779607e-03,-4.465088575544130480e-05,-2.117397484494596381e-03
3.601795556147795868e-03,-4.474108956198373543e-05,-2.117397512563568441e-03
3.601795539613476382e-03,-4.483129336850760586e-05,-2.117397540689245142e-03
3.601795523045821148e-03,-4.492149717501288224e-05,-2.117397568871627351e-03
3.601795506444830600e-03,-4.501170098149952388e-05,-2.117397597110713334e-03
3.601795489810504739e-03,-4.510190478796749692e-05,-2.117397625406504825e-03
3.601795473142842697e-03,-4.519210859441674037e-05,-2.117397653759001391e-03
3.601795456441845775e-03,-4.528231240084725423e-05,-2.117397682168201730e-03
3.601795439707512671e-03,-4.537251620725897750e-05,-2.117397710634107144e-03
3.601795422939844254e-03,-4.546272001365188987e-05,-2.117397739156718934e-03
3.601795406138840524e-03,-4.555292382002592357e-05,-2.117397767736034064e-03
3.601795389304500612e-03,-4.564312762638107182e-05,-2.117397796372054702e-03
3.601795372436826688e-03,-4.573333143271728041e-05,-2.117397825064779547e-03
3.601795355535815715e-03,-4.582353523903452225e-05,-2.117397853814209901e-03
3.601795338601469429e-03,-4.591373904533274311e-05,-2.117397882620345763e-03
3.601795321633788696e-03,-4.600394285161192267e-05,-2.117397911483184965e-03
3.601795304632770915e-03,-4.609414665787201350e-05,-2.117397940402729675e-03
3.601795287598418254e-03,-4.618435046411298848e-05,-2.117397969378979460e-03
3.601795270530729412e-03,-4.627455427033480697e-05,-2.117397998411933453e-03
3.601795253429706124e-03,-4.636475807653742153e-05,-2.117398027501592953e-03
3.601795236295346654e-03,-4.645496188272079828e-05,-2.117398056647956661e-03
3.601795219127651437e-03,-4.654516568888491688e-05,-2.117398085851025877e-03
3.601795201926620907e-03,-4.663536949502971636e-05,-2.117398115110799735e-03
3.601795184692255063e-03,-4.672557330115516960e-05,-2.117398144427278233e-03
3.601795167424553037e-03,-4.681577710726124951e-05,-2.117398173800461806e-03
3.601795150123515699e-03,-4.690598091334789510e-05,-2.117398203230350020e-03
3.601795132789143480e-03,-4.699618471941508603e-05,-2.117398232716943308e-03
3.601795115421435080e-03,-4.708638852546278842e-05,-2.117398262260241238e-03
3.601795098020391366e-03,-4.717659233149093452e-05,-2.117398291860243809e-03
3.601795080586011472e-03,-4.726679613749952433e-05,-2.117398321516952321e-03
3.601795063118295396e-03,-4.735699994348850362e-05,-2.117398351230364607e-03
3.601795045617245308e-03,-4.744720374945783853e-05,-2.117398381000481968e-03
3.601795028082859038e-03,-4.753740755540748839e-05,-2.117398410827304404e-03
3.601795010515137455e-03,-4.762761136133741933e-05,-2.117398440710831047e-03
3.601794992914079691e-03,-4.771781516724759068e-05,-2.117398470651063631e-03
3.601794975279687047e-03,-4.780801897313796857e-05,-2.117398500647999990e-03
3.601794957611958222e-03,-4.789822277900850555e-05,-2.117398530701641423e-03
3.601794939910894083e-03,-4.798842658485916776e-05,-2.117398560811987931e-03
3.601794922176493764e-03,-4.807863039068992808e-05,-2.117398590979039513e-03
3.601794904408758130e-03,-4.816883419650075263e-05,-2.117398621202794869e-03
3.601794886607687617e-03,-4.825903800229156687e-05,-2.117398651483256167e-03
3.601794868773280922e-03,-4.834924180806238436e-05,-2.117398681820422107e-03
3.601794850905538914e-03,-4.843944561381313734e-05,-2.117398712214292687e-03
3.601794833004460725e-03,-4.852964941954379869e-05,-2.117398742664867474e-03
3.601794815070047655e-03,-4.861985322525432099e-05,-2.117398773172148203e-03
3.601794797102298405e-03,-4.871005703094466357e-05,-2.117398803736133140e-03
3.601794779101214709e-03,-4.880026083661480611e-05,-2.117398834356822718e-03
3.601794761066793964e-03,-4.889046464226471473e-05,-2.117398865034216936e-03
3.601794742999037905e-03,-4.898066844789433522e-05,-2.117398895768317097e-03
3.601794724897946099e-03,-4.907087225350362692e-05,-2.117398926559121465e-03
3.601794706763519847e-03,-4.916107605909256949e-05,-2.117398957406630474e-03
3.601794688595757413e-03,-4.925127986466111552e-05,-2.117398988310844124e-03
3.601794670394658799e-03,-4.934148367020921755e-05,-2.117399019271763282e-03
3.601794652160225305e-03,-4.943168747573686205e-05,-2.117399050289387515e-03
3.601794633892456497e-03,-4.952189128124398802e-05,-2.117399081363715522e-03
3.601794615591351507e-03,-4.961209508673058191e-05,-2.117399112494748603e-03
3.601794597256910337e-03,-4.970229889219659629e-05,-2.117399143682486325e-03
3.601794578889133853e-03,-4.979250269764197017e-05,-2.117399174926929990e-03
3.601794560488022490e-03,-4.988270650306671032e-05,-2.117399206228077427e-03
3.601794542053574077e-03,-4.997291030847074222e-05,-2.117399237585929940e-03
3.601794523585791219e-03,-5.006311411385403875e-05,-2.117399269000487094e-03
3.601794505084672613e-03,-5.015331791921656603e-05,-2.117399300471749755e-03
3.601794486550218260e-03,-5.024352172455829696e-05,-2.117399331999716191e-03
3.601794467982428159e-03,-5.033372552987917732e-05,-2.117399363584388135e-03
3.601794449381302745e-03,-5.042392933517916647e-05,-2.117399395225765153e-03
3.601794430746841150e-03,-5.051413314045824406e-05,-2.117399426923846379e-03
3.601794412079044674e-03,-5.060433694571636945e-05,-2.117399458678632246e-03
3.601794393377912018e-03,-5.069454075095350198e-05,-2.117399490490123187e-03
3.601794374643444048e-03,-5.078474455616960098e-05,-2.117399522358319203e-03
3.601794355875639897e-03,-5.087494836136462580e-05,-2.117399554283219860e-03
3.601794337074500432e-03,-5.096515216653854934e-05,-2.117399586264825592e-03
3.601794318240026088e-03,-5.105535597169131060e-05,-2.117399618303135531e-03
3.601794299372214694e-03,-5.114555977682291637e-05,-2.117399650398150545e-03
3.601794280471068855e-03,-5.123576358193329211e-05,-2.117399682549870633e-03
3.601794261536587268e-03,-5.132596738702241071e-05,-2.117399714758294929e-03
3.601794242568769067e-03,-5.141617119209023151e-05,-2.117399747023424733e-03
3.601794223567615985e-03,-5.150637499713672064e-05,-2.117399779345258744e-03
3.601794204533126723e-03,-5.159657880216184420e-05,-2.117399811723797830e-03
3.601794185465302580e-03,-5.168678260716556833e-05,-2.117399844159041557e-03
3.601794166364142690e-03,-5.177698641214784558e-05,-2.117399876650990359e-03
3.601794147229646186e-03,-5.186719021710863530e-05,-2.117399909199643802e-03
3.601794128061815235e-03,-5.195739402204791038e-05,-2.117399941805002319e-03
3.601794108860648103e-03,-5.204759782696563694e-05,-2.117399974467064610e-03
3.601794089626145223e-03,-5.213780163186175400e-05,-2.117400007185833277e-03
3.601794070358307030e-03,-5.222800543673624800e-05,-2.117400039961305717e-03
3.601794051057132656e-03,-5.231820924158907152e-05,-2.117400072793483232e-03
3.601794031722622969e-03,-5.240841304642019743e-05,-2.117400105682364954e-03
3.601794012354777100e-03,-5.249861685122956476e-05,-2.117400138627952184e-03
3.601793992953595484e-03,-5.258882065601717351e-05,-2.117400171630244056e-03
3.601793973519079421e-03,-5.267902446078294914e-05,-2.117400204689240568e-03
3.601793954051226310e-03,-5.276922826552686455e-05,-2.117400237804941722e-03
3.601793934550039187e-03,-5.285943207024889940e-05,-2.117400270977347950e-03
3.601793915015515015e-03,-5.294963587494899948e-05,-2.117400304206459253e-03
3.601793895447655530e-03,-5.303983967962712414e-05,-2.117400337492274763e-03
3.601793875846460730e-03,-5.313004348428325305e-05,-2.117400370834794914e-03
3.601793856211929750e-03,-5.322024728891733199e-05,-2.117400404234020140e-03
3.601793836544063022e-03,-5.331045109352934065e-05,-2.117400437689950874e-03
3.601793816842860981e-03,-5.340065489811922481e-05,-2.117400471202585815e-03
3.601793797108323626e-03,-5.349085870268695058e-05,-2.117400504771925398e-03
3.601793777340449223e-03,-5.358106250723249087e-05,-2.117400538397969621e-03
3.601793757539240807e-03,-5.367126631175580501e-05,-2.117400572080718919e-03
3.601793737704695342e-03,-5.376147011625684557e-05,-2.117400605820172425e-03
3.601793717836815432e-03,-5.385167392073557190e-05,-2.117400639616331005e-03
3.601793697935599340e-03,-5.394187772519196366e-05,-2.117400673469194659e-03
3.601793678001046634e-03,-5.403208152962598020e-05,-2.117400707378762955e-03
3.601793658033159481e-03,-5.412228533403756731e-05,-2.117400741345036325e-03
3.601793638031936147e-03,-5.421248913842671144e-05,-2.117400775368014337e-03
3.601793617997376632e-03,-5.430269294279335836e-05,-2.117400809447696555e-03
3.601793597929482237e-03,-5.439289674713748099e-05,-2.117400843584083849e-03
3.601793577828251661e-03,-5.448310055145903189e-05,-2.117400877777175783e-03
3.601793557693685772e-03,-5.457330435575797717e-05,-2.117400912026972792e-03
3.601793537525784569e-03,-5.466350816003428295e-05,-2.117400946333474442e-03
3.601793517324546751e-03,-5.475371196428791535e-05,-2.117400980696681166e-03
3.601793497089973619e-03,-5.484391576851882017e-05,-2.117401015116592098e-03
3.601793476822065174e-03,-5.493411957272696352e-05,-2.117401049593208105e-03
3.601793456520819680e-03,-5.502432337691232506e-05,-2.117401084126529186e-03
3.601793436186239306e-03,-5.511452718107487771e-05,-2.117401118716554041e-03
3.601793415818323619e-03,-5.520473098521454691e-05,-2.117401153363284404e-03
3.601793395417071750e-03,-5.529493478933130557e-05,-2.117401188066718974e-03
3.601793374982484568e-03,-5.538513859342512657e-05,-2.117401222826859053e-03
3.601793354514561639e-03,-5.547534239749596249e-05,-2.117401257643703339e-03
3.601793334013302528e-03,-5.556554620154378622e-05,-2.117401292517253134e-03
3.601793313478708104e-03,-5.565575000556855710e-05,-2.117401327447506702e-03
3.601793292910777933e-03,-5.574595380957024802e-05,-2.117401362434466212e-03
3.601793272309512014e-03,-5.583615761354879123e-05,-2.117401397478129495e-03
3.601793251674910348e-03,-5.592636141750418672e-05,-2.117401432578497420e-03
3.601793231006972500e-03,-5.601656522143635996e-05,-2.117401467735570853e-03
3.601793210305699773e-03,-5.610676902534530416e-05,-2.117401502949348494e-03
3.601793189571090431e-03,-5.619697282923095835e-05,-2.117401538219831209e-03
3.601793168803145342e-03,-5.628717663309330897e-05,-2.117401573547018565e-03
3.601793148001865372e-03,-5.637738043693231536e-05,-2.117401608930910128e-03
3.601793127167249656e-03,-5.646758424074790975e-05,-2.117401644371507199e-03
3.601793106299298192e-03,-5.655778804454008539e-05,-2.117401679868808912e-03
3.601793085398009679e-03,-5.664799184830878804e-05,-2.117401715422814832e-03
3.601793064463386720e-03,-5.673819565205399061e-05,-2.117401751033525827e-03
3.601793043495427581e-03,-5.682839945577567277e-05,-2.117401786700941896e-03
3.601793022494132693e-03,-5.691860325947373965e-05,-2.117401822425062172e-03
3.601793001459502493e-03,-5.700880706314822514e-05,-2.117401858205887957e-03
3.601792980391536544e-03,-5.709901086679903436e-05,-2.117401894043417516e-03
3.601792959290233982e-03,-5.718921467042616054e-05,-2.117401929937652149e-03
3.601792938155595671e-03,-5.727941847402956980e-05,-2.117401965888591857e-03
3.601792916987622915e-03,-5.736962227760919437e-05,-2.117402001896235772e-03
3.601792895786313110e-03,-5.745982608116502070e-05,-2.117402037960585195e-03
3.601792874551668425e-03,-5.755002988469702847e-05,-2.117402074081638393e-03
3.601792853283687559e-03,-5.764023368820512958e-05,-2.117402110259397098e-03
3.601792831982371379e-03,-5.773043749168933081e-05,-2.117402146493860011e-03
3.601792810647719018e-03,-5.782064129514958472e-05,-2.117402182785027998e-03
3.601792789279730910e-03,-5.791084509858582355e-05,-2.117402219132900193e-03
3.601792767878407488e-03,-5.800104890199806764e-05,-2.117402255537477896e-03
3.601792746443747018e-03,-5.809125270538622888e-05,-2.117402291998760240e-03
3.601792724975752535e-03,-5.818145650875028018e-05,-2.117402328516746791e-03
3.601792703474421004e-03,-5.827166031209020798e-05,-2.117402365091438851e-03
3.601792681939754159e-03,-5.836186411540595807e-05,-2.117402401722834684e-03
3.601792660371751133e-03,-5.845206791869748302e-05,-2.117402438410935592e-03
3.601792638770412794e-03,-5.854227172196474894e-05,-2.117402475155741575e-03
3.601792617135738707e-03,-5.863247552520773552e-05,-2.117402511957251765e-03
3.601792595467729306e-03,-5.872267932842641563e-05,-2.117402548815467030e-03
3.601792573766383291e-03,-5.881288313162071475e-05,-2.117402585730386502e-03
3.601792552031701528e-03,-5.890308693479059899e-05,-2.117402622702011482e-03
3.601792530263684018e-03,-5.899329073793605480e-05,-2.117402659730340669e-03
3.601792508462331194e-03,-5.908349454105702120e-05,-2.117402696815374932e-03
3.601792486627642623e-03,-5.917369834415349818e-05,-2.117402733957113401e-03
3.601792464759618305e-03,-5.926390214722541120e-05,-2.117402771155557379e-03
3.601792442858257372e-03,-5.935410595027273316e-05,-2.117402808410705130e-03
3.601792420923561559e-03,-5.944430975329543018e-05,-2.117402845722558390e-03
3.601792398955529131e-03,-5.953451355629346838e-05,-2.117402883091115424e-03
3.601792376954161823e-03,-5.962471735926679354e-05,-2.117402920516377966e-03
3.601792354919458334e-03,-5.971492116221537857e-05,-2.117402957998345148e-03
3.601792332851419098e-03,-5.980512496513918958e-05,-2.117402995537016972e-03
3.601792310750043247e-03,-5.989532876803819946e-05,-2.117403033132393003e-03
3.601792288615332516e-03,-5.998553257091235400e-05,-2.117403070784474109e-03
3.601792266447285604e-03,-6.007573637376161933e-05,-2.117403108493259856e-03
3.601792244245903812e-03,-6.016594017658594124e-05,-2.117403146258750243e-03
3.601792222011184971e-03,-6.025614397938532649e-05,-2.117403184080946139e-03
3.601792199743130817e-03,-6.034634778215969378e-05,-2.117403221959845809e-03
3.601792177441740482e-03,-6.043655158490902278e-05,-2.117403259895450120e-03
3.601792155107014833e-03,-6.052675538763327282e-05,-2.117403297887759939e-03
3.601792132738953003e-03,-6.061695919033243036e-05,-2.117403335936774399e-03
3.601792110337556294e-03,-6.070716299300642763e-05,-2.117403374042492632e-03
3.601792087902822535e-03,-6.079736679565523753e-05,-2.117403412204916374e-03
3.601792065434753897e-03,-6.088757059827880585e-05,-2.117403450424044323e-03
3.601792042933349078e-03,-6.097777440087711226e-05,-2.117403488699877347e-03
3.601792020398608078e-03,-6.106797820345012966e-05,-2.117403527032414579e-03
3.601791997830531330e-03,-6.115818200599781060e-05,-2.117403565421657318e-03
3.601791975229118835e-03,-6.124838580852010766e-05,-2.117403603867603831e-03
3.601791952594371026e-03,-6.133858961101699373e-05,-2.117403642370255419e-03
3.601791929926286603e-03,-6.142879341348842816e-05,-2.117403680929611648e-03
3.601791907224867299e-03,-6.151899721593439738e-05,-2.117403719545672951e-03
3.601791884490111815e-03,-6.160920101835480655e-05,-2.117403758218438462e-03
3.601791861722020149e-03,-6.169940482074968275e-05,-2.117403796947909048e-03
3.601791838920592737e-03,-6.178960862311894467e-05,-2.117403835734084274e-03
3.601791816085829576e-03,-6.187981242546256521e-05,-2.117403874576963708e-03
3.601791793217730669e-03,-6.197001622778050371e-05,-2.117403913476548216e-03
3.601791770316296014e-03,-6.206022003007274663e-05,-2.117403952432837366e-03
3.601791747381525178e-03,-6.215042383233923974e-05,-2.117403991445831156e-03
3.601791724413418161e-03,-6.224062763457992883e-05,-2.117404030515529587e-03
3.601791701411976698e-03,-6.233083143679480037e-05,-2.117404069641932660e-03
3.601791678377198186e-03,-6.242103523898381368e-05,-2.117404108825040373e-03
3.601791655309083493e-03,-6.251123904114692811e-05,-2.117404148064853161e-03
3.601791632207633920e-03,-6.260144284328410301e-05,-2.117404187361370156e-03
3.601791609072848167e-03,-6.269164664539531126e-05,-2.117404226714591792e-03
3.601791585904726666e-03,-6.278185044748049867e-05,-2.117404266124518503e-03
3.601791562703269851e-03,-6.287205424953962456e-05,-2.117404305591149855e-03
3.601791539468475987e-03,-6.296225805157268894e-05,-2.117404345114485848e-03
3.601791516200346377e-03,-6.305246185357962405e-05,-2.117404384694526482e-03
3.601791492898881453e-03,-6.314266565556037568e-05,-2.117404424331271323e-03
3.601791469564081215e-03,-6.323286945751494382e-05,-2.117404464024721239e-03
3.601791446195943495e-03,-6.332307325944327428e-05,-2.117404503774875796e-03
3.601791422794470895e-03,-6.341327706134532638e-05,-2.117404543581734994e-03
3.601791399359662114e-03,-6.350348086322108658e-05,-2.117404583445299700e-03
3.601791375891517585e-03,-6.359368466507047356e-05,-2.117404623365567746e-03
3.601791352390038177e-03,-6.368388846689347377e-05,-2.117404663342540433e-03
3.601791328855221720e-03,-6.377409226869004656e-05,-2.117404703376218628e-03
3.601791305287069950e-03,-6.386429607046019191e-05,-2.117404743466601031e-03
3.601791281685581998e-03,-6.395449987220380142e-05,-2.117404783613688075e-03
3.601791258050758299e-03,-6.404470367392090218e-05,-2.117404823817480193e-03
3.601791234382598419e-03,-6.413490747561139934e-05,-2.117404864077976952e-03
3.601791210681102792e-03,-6.422511127727533354e-05,-2.117404904395177919e-03
3.601791186946271851e-03,-6.431531507891255571e-05,-2.117404944769083527e-03
3.601791163178103862e-03,-6.440551888052313361e-05,-2.117404985199694209e-03
3.601791139376600559e-03,-6.449572268210698592e-05,-2.117405025687009099e-03
3.601791115541761509e-03,-6.458592648366405845e-05,-2.117405066231029063e-03
3.601791091673586277e-03,-6.467613028519435118e-05,-2.117405106831753234e-03
3.601791067772075732e-03,-6.476633408669779635e-05,-2.117405147489182481e-03
3.601791043837229440e-03,-6.485653788817436686e-05,-2.117405188203315934e-03
3.601791019869046966e-03,-6.494674168962403561e-05,-2.117405228974154462e-03
3.601790995867527444e-03,-6.503694549104674838e-05,-2.117405269801698065e-03
3.601790971832673043e-03,-6.512714929244249162e-05,-2.117405310685945008e-03
3.601790947764482460e-03,-6.521735309381118402e-05,-2.117405351626897459e-03
3.601790923662956563e-03,-6.530755689515283912e-05,-2.117405392624554551e-03
3.601790899528094485e-03,-6.539776069646738917e-05,-2.117405433678916284e-03
3.601790875359895793e-03,-6.548796449775480706e-05,-2.117405474789982658e-03
3.601790851158361787e-03,-6.557816829901503858e-05,-2.117405515957753673e-03
3.601790826923492467e-03,-6.566837210024807018e-05,-2.117405557182228896e-03
3.601790802655286533e-03,-6.575857590145386120e-05,-2.117405598463408759e-03
3.601790778353744418e-03,-6.584877970263237098e-05,-2.117405639801293697e-03
3.601790754018866121e-03,-6.593898350378351821e-05,-2.117405681195882843e-03
3.601790729650652945e-03,-6.602918730490734355e-05,-2.117405722647177062e-03
3.601790705249103587e-03,-6.611939110600375212e-05,-2.117405764155175923e-03
3.601790680814218049e-03,-6.620959490707273038e-05,-2.117405805719878992e-03
3.601790656345996329e-03,-6.629979870811425122e-05,-2.117405847341286701e-03
3.601790631844438862e-03,-6.639000250912827398e-05,-2.117405889019399485e-03
3.601790607309546081e-03,-6.648020631011470380e-05,-2.117405930754216476e-03
3.601790582741316686e-03,-6.657041011107356777e-05,-2.117405972545738542e-03
3.601790558139751110e-03,-6.666061391200481169e-05,-2.117406014393964815e-03
3.601790533504850220e-03,-6.675081771290840846e-05,-2.117406056298895729e-03
3.601790508836613149e-03,-6.684102151378430387e-05,-2.117406098260531284e-03
3.601790484135040330e-03,-6.693122531463245725e-05,-2.117406140278871914e-03
3.601790459400130463e-03,-6.702142911545284150e-05,-2.117406182353916751e-03
3.601790434631886150e-03,-6.711163291624538886e-05,-2.117406224485665796e-03
3.601790409830305222e-03,-6.720183671701012644e-05,-2.117406266674120349e-03
3.601790384995388981e-03,-6.729204051774695936e-05,-2.117406308919279542e-03
3.601790360127136124e-03,-6.738224431845588763e-05,-2.117406351221142510e-03
3.601790335225547521e-03,-6.747244811913685704e-05,-2.117406393579710118e-03
3.601790310290622302e-03,-6.756265191978979982e-05,-2.117406435994982801e-03
3.601790285322361770e-03,-6.765285572041472952e-05,-2.117406478466960125e-03
3.601790260320765491e-03,-6.774305952101160550e-05,-2.117406520995642090e-03
3.601790235285833031e-03,-6.783326332158034642e-05,-2.117406563581028696e-03
3.601790210217564389e-03,-6.792346712212096586e-05,-2.117406606223119943e-03
3.601790185115960000e-03,-6.801367092263338248e-05,-2.117406648921914963e-03
3.601790159981020298e-03,-6.810387472311756920e-05,-2.117406691677415492e-03
3.601790134812743547e-03,-6.819407852357348533e-05,-2.117406734489620228e-03
3.601790109611130615e-03,-6.828428232400113090e-05,-2.117406777358529606e-03
3.601790084376182803e-03,-6.837448612440046524e-05,-2.117406820284144058e-03
3.601790059107897943e-03,-6.846468992477139348e-05,-2.117406863266462283e-03
3.601790033806278202e-03,-6.855489372511391563e-05,-2.117406906305485583e-03
3.601790008471321414e-03,-6.864509752542800457e-05,-2.117406949401213524e-03
3.601789983103029311e-03,-6.873530132571359255e-05,-2.117406992553646106e-03
3.601789957701401028e-03,-6.882550512597066601e-05,-2.117407035762783329e-03
3.601789932266436130e-03,-6.891570892619918430e-05,-2.117407079028624760e-03
3.601789906798136352e-03,-6.900591272639912030e-05,-2.117407122351170397e-03
3.601789881296500826e-03,-6.909611652657040627e-05,-2.117407165730421544e-03
3.601789855761527819e-03,-6.918632032671302864e-05,-2.117407209166376897e-03
3.601789830193219497e-03,-6.927652412682693320e-05,-2.117407252659036891e-03
3.601789804591575862e-03,-6.936672792691209286e-05,-2.117407296208401526e-03
3.601789778956595613e-03,-6.945693172696849405e-05,-2.117407339814470803e-03
3.601789753288279182e-03,-6.954713552699604191e-05,-2.117407383477244286e-03
3.601789727586627004e-03,-6.963733932699474999e-05,-2.117407427196723278e-03
3.601789701851639512e-03,-6.972754312696455054e-05,-2.117407470972906044e-03
3.601789676083314972e-03,-6.981774692690542999e-05,-2.117407514805793450e-03
3.601789650281654251e-03,-6.990795072681733413e-05,-2.117407558695385064e-03
3.601789624446657782e-03,-6.999815452670022232e-05,-2.117407602641682186e-03
3.601789598578326000e-03,-7.008835832655408099e-05,-2.117407646644683516e-03
3.601789572676657603e-03,-7.017856212637884239e-05,-2.117407690704389486e-03
3.601789546741653459e-03,-7.026876592617449296e-05,-2.117407734820799664e-03
3.601789520773313134e-03,-7.035896972594099204e-05,-2.117407778993914916e-03
3.601789494771637061e-03,-7.044917352567829898e-05,-2.117407823223734376e-03
3.601789468736625241e-03,-7.053937732538635957e-05,-2.117407867510258477e-03
3.601789442668276373e-03,-7.062958112506514670e-05,-2.117407911853486785e-03
3.601789416566591757e-03,-7.071978492471463326e-05,-2.117407956253420601e-03
3.601789390431570960e-03,-7.080998872433477860e-05,-2.117408000710058191e-03
3.601789364263214849e-03,-7.090019252392554207e-05,-2.117408045223400422e-03
3.601789338061522558e-03,-7.099039632348686944e-05,-2.117408089793447294e-03
3.601789311826493652e-03,-7.108060012301876073e-05,-2.117408134420199241e-03
3.601789285558129432e-03,-7.117080392252114816e-05,-2.117408179103655395e-03
3.601789259256428597e-03,-7.126100772199401819e-05,-2.117408223843815756e-03
3.601789232921391581e-03,-7.135121152143730305e-05,-2.117408268640681625e-03
3.601789206553019252e-03,-7.144141532085097565e-05,-2.117408313494250835e-03
3.601789180151310742e-03,-7.153161912023500886e-05,-2.117408358404525119e-03
3.601789153716265617e-03,-7.162182291958936204e-05,-2.117408403371504478e-03
3.601789127247885178e-03,-7.171202671891399453e-05,-2.117408448395187177e-03
3.601789100746168124e-03,-7.180223051820887922e-05,-2.117408493475575817e-03
3.601789074211114890e-03,-7.189243431747394835e-05,-2.117408538612667798e-03
3.601789047642726341e-03,-7.198263811670920192e-05,-2.117408583806465287e-03
3.601789021041001179e-03,-7.207284191591461283e-05,-2.117408629056966984e-03
3.601788994405939835e-03,-7.216304571509007265e-05,-2.117408674364173321e-03
3.601788967737542310e-03,-7.225324951423562204e-05,-2.117408719728083866e-03
3.601788941035809904e-03,-7.234345331335116614e-05,-2.117408765148699485e-03
3.601788914300739584e-03,-7.243365711243670495e-05,-2.117408810626018878e-03
3.601788887532334817e-03,-7.252386091149217069e-05,-2.117408856160043779e-03
3.601788860730592567e-03,-7.261406471051757693e-05,-2.117408901750772454e-03
3.601788833895515005e-03,-7.270426850951281525e-05,-2.117408947398205770e-03
3.601788807027101694e-03,-7.279447230847788564e-05,-2.117408993102343727e-03
3.601788780125352203e-03,-7.288467610741276100e-05,-2.117409038863186758e-03
3.601788753190266531e-03,-7.297487990631741422e-05,-2.117409084680733997e-03
3.601788726221844678e-03,-7.306508370519176399e-05,-2.117409130554985010e-03
3.601788699220086210e-03,-7.315528750403578321e-05,-2.117409176485941531e-03
3.601788672184992428e-03,-7.324549130284945832e-05,-2.117409222473602259e-03
3.601788645116562899e-03,-7.333569510163274866e-05,-2.117409268517967194e-03
3.601788618014795454e-03,-7.342589890038561358e-05,-2.117409314619037204e-03
3.601788590879693563e-03,-7.351610269910801242e-05,-2.117409360776811422e-03
3.601788563711255057e-03,-7.360630649779987742e-05,-2.117409406991290714e-03
3.601788536509481237e-03,-7.369651029646122212e-05,-2.117409453262473779e-03
3.601788509274370369e-03,-7.378671409509197877e-05,-2.117409499590361920e-03
3.601788482005923754e-03,-7.387691789369210671e-05,-2.117409545974953834e-03
3.601788454704140958e-03,-7.396712169226160594e-05,-2.117409592416250822e-03
3.601788427369021980e-03,-7.405732549080039514e-05,-2.117409638914252452e-03
3.601788400000567256e-03,-7.414752928930846076e-05,-2.117409685468958722e-03
3.601788372598775483e-03,-7.423773308778573504e-05,-2.117409732080369200e-03
3.601788345163648829e-03,-7.432793688623224508e-05,-2.117409778748484319e-03
3.601788317695185128e-03,-7.441814068464786892e-05,-2.117409825473303645e-03
3.601788290193385245e-03,-7.450834448303264720e-05,-2.117409872254827612e-03
3.601788262658249615e-03,-7.459854828138649861e-05,-2.117409919093056220e-03
3.601788235089778238e-03,-7.468875207970938250e-05,-2.117409965987989036e-03
3.601788207487970680e-03,-7.477895587800129887e-05,-2.117410012939626926e-03
3.601788179852826507e-03,-7.486915967626215284e-05,-2.117410059947968590e-03
3.601788152184346153e-03,-7.495936347449194443e-05,-2.117410107013015762e-03
3.601788124482530051e-03,-7.504956727269066006e-05,-2.117410154134766707e-03
3.601788096747377335e-03,-7.513977107085820489e-05,-2.117410201313221860e-03
3.601788068978889305e-03,-7.522997486899459245e-05,-2.117410248548382088e-03
3.601788041177064661e-03,-7.532017866709975499e-05,-2.117410295840246523e-03
3.601788013341903402e-03,-7.541038246517365185e-05,-2.117410343188816033e-03
3.601787985473406829e-03,-7.550058626321626948e-05,-2.117410390594089316e-03
3.601787957571573641e-03,-7.559079006122755367e-05,-2.117410438056067674e-03
3.601787929636403839e-03,-7.568099385920747731e-05,-2.117410485574750239e-03
3.601787901667899156e-03,-7.577119765715597264e-05,-2.117410533150137879e-03
3.601787873666057425e-03,-7.586140145507303965e-05,-2.117410580782229292e-03
3.601787845630879514e-03,-7.595160525295863770e-05,-2.117410628471025347e-03
3.601787817562365421e-03,-7.604180905081272613e-05,-2.117410676216526476e-03
3.601787789460515581e-03,-7.613201284863522361e-05,-2.117410724018730945e-03
3.601787761325329559e-03,-7.622221664642615726e-05,-2.117410771877640489e-03
3.601787733156807791e-03,-7.631242044418545931e-05,-2.117410819793254673e-03
3.601787704954948974e-03,-7.640262424191308910e-05,-2.117410867765573499e-03
3.601787676719753976e-03,-7.649282803960903308e-05,-2.117410915794596098e-03
3.601787648451223230e-03,-7.658303183727320994e-05,-2.117410963880323772e-03
3.601787620149356304e-03,-7.667323563490563323e-05,-2.117411012022756521e-03
3.601787591814153630e-03,-7.676343943250622164e-05,-2.117411060221892610e-03
3.601787563445613908e-03,-7.685364323007494805e-05,-2.117411108477733339e-03
3.601787535043738005e-03,-7.694384702761181247e-05,-2.117411156790279143e-03
3.601787506608526354e-03,-7.703405082511672003e-05,-2.117411205159529155e-03
3.601787478139978523e-03,-7.712425462258968429e-05,-2.117411253585483374e-03
3.601787449638094510e-03,-7.721445842003062392e-05,-2.117411302068142234e-03
3.601787421102874750e-03,-7.730466221743955248e-05,-2.117411350607505734e-03
3.601787392534317941e-03,-7.739486601481637511e-05,-2.117411399203573442e-03
3.601787363932425386e-03,-7.748506981216110535e-05,-2.117411447856345358e-03
3.601787335297196649e-03,-7.757527360947364834e-05,-2.117411496565822782e-03
3.601787306628631731e-03,-7.766547740675403119e-05,-2.117411545332003979e-03
3.601787277926730198e-03,-7.775568120400217257e-05,-2.117411594154889384e-03
3.601787249191493352e-03,-7.784588500121804539e-05,-2.117411643034479863e-03
3.601787220422919458e-03,-7.793608879840162253e-05,-2.117411691970774116e-03
3.601787191621009816e-03,-7.802629259555284979e-05,-2.117411740963773444e-03
3.601787162785763125e-03,-7.811649639267171361e-05,-2.117411790013476978e-03
3.601787133917180687e-03,-7.820670018975814624e-05,-2.117411839119885154e-03
3.601787105015262936e-03,-7.829690398681213412e-05,-2.117411888282997538e-03
3.601787076080007702e-03,-7.838710778383365014e-05,-2.117411937502814562e-03
3.601787047111416722e-03,-7.847731158082261300e-05,-2.117411986779336227e-03
3.601787018109489560e-03,-7.856751537777902268e-05,-2.117412036112562099e-03
3.601786989074226650e-03,-7.865771917470281143e-05,-2.117412085502492179e-03
3.601786960005627126e-03,-7.874792297159399280e-05,-2.117412134949126900e-03
3.601786930903690988e-03,-7.883812676845245837e-05,-2.117412184452466262e-03
3.601786901768419102e-03,-7.892833056527823524e-05,-2.117412234012509397e-03
3.601786872599810601e-03,-7.901853436207124210e-05,-2.117412283629258474e-03
3.601786843397866353e-03,-7.910873815883149251e-05,-2.117412333302710458e-03
3.601786814162585924e-03,-7.919894195555887803e-05,-2.117412383032867950e-03
3.601786784893968446e-03,-7.928914575225341223e-05,-2.117412432819728782e-03
3.601786755592015221e-03,-7.937934954891505445e-05,-2.117412482663294689e-03
3.601786726256725815e-03,-7.946955334554375047e-05,-2.117412532563565236e-03
3.601786696888100662e-03,-7.955975714213947320e-05,-2.117412582520539991e-03
3.601786667486138460e-03,-7.964996093870215486e-05,-2.117412632534219387e-03
3.601786638050840077e-03,-7.974016473523180902e-05,-2.117412682604602990e-03
3.601786608582205947e-03,-7.983036853172836790e-05,-2.117412732731691234e-03
3.601786579080235636e-03,-7.992057232819180441e-05,-2.117412782915483252e-03
3.601786549544928277e-03,-8.001077612462206433e-05,-2.117412833155980778e-03
3.601786519976285170e-03,-8.010097992101913411e-05,-2.117412883453181644e-03
3.601786490374305448e-03,-8.019118371738297309e-05,-2.117412933807087585e-03
3.601786460738989979e-03,-8.028138751371352707e-05,-2.117412984217697733e-03
3.601786431070338329e-03,-8.037159131001075539e-05,-2.117413034685012522e-03
3.601786401368350064e-03,-8.046179510627464448e-05,-2.117413085209031952e-03
3.601786371633025185e-03,-8.055199890250515371e-05,-2.117413135789755155e-03
3.601786341864364124e-03,-8.064220269870221529e-05,-2.117413186427183434e-03
3.601786312062367316e-03,-8.073240649486581569e-05,-2.117413237121315486e-03
3.601786282227033894e-03,-8.082261029099592779e-05,-2.117413287872152612e-03
3.601786252358364724e-03,-8.091281408709249739e-05,-2.117413338679693512e-03
3.601786222456358072e-03,-8.100301788315549738e-05,-2.117413389543939053e-03
3.601786192521015673e-03,-8.109322167918487354e-05,-2.117413440464889236e-03
3.601786162552337526e-03,-8.118342547518061234e-05,-2.117413491442544059e-03
3.601786132550322764e-03,-8.127362927114263245e-05,-2.117413542476902655e-03
3.601786102514971388e-03,-8.136383306707094742e-05,-2.117413593567965893e-03
3.601786072446283831e-03,-8.145403686296550305e-05,-2.117413644715733338e-03
3.601786042344260527e-03,-8.154424065882624512e-05,-2.117413695920205424e-03
3.601786012208900607e-03,-8.163444445465316008e-05,-2.117413747181382151e-03
3.601785982040204507e-03,-8.172464825044618018e-05,-2.117413798499262652e-03
3.601785951838171792e-03,-8.181485204620530540e-05,-2.117413849873848227e-03
3.601785921602802896e-03,-8.190505584193048154e-05,-2.117413901305138010e-03
3.601785891334098252e-03,-8.199525963762165439e-05,-2.117413952793132000e-03
3.601785861032056127e-03,-8.208546343327881040e-05,-2.117414004337830630e-03
3.601785830696677820e-03,-8.217566722890189536e-05,-2.117414055939233469e-03
3.601785800327964634e-03,-8.226587102449089571e-05,-2.117414107597340514e-03
3.601785769925913532e-03,-8.235607482004575724e-05,-2.117414159312152634e-03
3.601785739490527549e-03,-8.244627861556643930e-05,-2.117414211083668528e-03
3.601785709021803651e-03,-8.253648241105288768e-05,-2.117414262911889063e-03
3.601785678519743572e-03,-8.262668620650511593e-05,-2.117414314796813805e-03
3.601785647984348613e-03,-8.271689000192304273e-05,-2.117414366738443188e-03
3.601785617415616605e-03,-8.280709379730662742e-05,-2.117414418736776778e-03
3.601785586813547983e-03,-8.289729759265588357e-05,-2.117414470791815009e-03
3.601785556178143180e-03,-8.298750138797071629e-05,-2.117414522903557448e-03
3.601785525509402629e-03,-8.307770518325111205e-05,-2.117414575072004094e-03
3.601785494807325030e-03,-8.316790897849707083e-05,-2.117414627297155381e-03
3.601785464071910383e-03,-8.325811277370848422e-05,-2.117414679579010875e-03
3.601785433303160856e-03,-8.334831656888533867e-05,-2.117414731917570576e-03
3.601785402501074280e-03,-8.343852036402762062e-05,-2.117414784312834919e-03
3.601785371665651957e-03,-8.352872415913527586e-05,-2.117414836764803902e-03
3.601785340796892585e-03,-8.361892795420827729e-05,-2.117414889273477093e-03
3.601785309894796599e-03,-8.370913174924655715e-05,-2.117414941838854491e-03
3.601785278959364865e-03,-8.379933554425010188e-05,-2.117414994460936530e-03
3.601785247990596951e-03,-8.388953933921888438e-05,-2.117415047139722343e-03
3.601785216988491987e-03,-8.397974313415286398e-05,-2.117415099875212797e-03
3.601785185953050843e-03,-8.406994692905197294e-05,-2.117415152667407891e-03
3.601785154884273952e-03,-8.416015072391621124e-05,-2.117415205516307193e-03
3.601785123782160012e-03,-8.425035451874551113e-05,-2.117415258421910702e-03
3.601785092646709891e-03,-8.434055831353985905e-05,-2.117415311384219286e-03
3.601785061477923156e-03,-8.443076210829921434e-05,-2.117415364403231210e-03
3.601785030275800673e-03,-8.452096590302350925e-05,-2.117415417478947775e-03
3.601784999040341141e-03,-8.461116969771275732e-05,-2.117415470611368981e-03
3.601784967771545429e-03,-8.470137349236687725e-05,-2.117415523800494394e-03
3.601784936469413535e-03,-8.479157728698585546e-05,-2.117415577046324014e-03
3.601784905133945461e-03,-8.488178108156965132e-05,-2.117415630348857842e-03
3.601784873765140772e-03,-8.497198487611822416e-05,-2.117415683708096744e-03
3.601784842362999468e-03,-8.506218867063151977e-05,-2.117415737124039420e-03
3.601784810927521549e-03,-8.515239246510953816e-05,-2.117415790596687171e-03
3.601784779458707883e-03,-8.524259625955219800e-05,-2.117415844126038262e-03
3.601784747956557169e-03,-8.533280005395949930e-05,-2.117415897712094860e-03
3.601784716421070707e-03,-8.542300384833137429e-05,-2.117415951354854366e-03
3.601784684852247197e-03,-8.551320764266782297e-05,-2.117416005054319379e-03
3.601784653250087939e-03,-8.560341143696877759e-05,-2.117416058810488166e-03
3.601784621614591633e-03,-8.569361523123419748e-05,-2.117416112623361595e-03
3.601784589945759580e-03,-8.578381902546405554e-05,-2.117416166492939230e-03
3.601784558243590912e-03,-8.587402281965833821e-05,-2.117416220419221073e-03
3.601784526508085196e-03,-8.596422661381695064e-05,-2.117416274402207556e-03
3.601784494739243732e-03,-8.605443040793990636e-05,-2.117416328441898248e-03
3.601784462937065653e-03,-8.614463420202716473e-05,-2.117416382538292712e-03
3.601784431101550960e-03,-8.623483799607867153e-05,-2.117416436691392252e-03
3.601784399232700086e-03,-8.632504179009438611e-05,-2.117416490901195998e-03
3.601784367330512597e-03,-8.641524558407426781e-05,-2.117416545167703952e-03
3.601784335394988493e-03,-8.650544937801830307e-05,-2.117416599490916113e-03
3.601784303426128642e-03,-8.659565317192643768e-05,-2.117416653870832915e-03
3.601784271423931743e-03,-8.668585696579861745e-05,-2.117416708307453491e-03
3.601784239388398663e-03,-8.677606075963485591e-05,-2.117416762800779142e-03
3.601784207319528967e-03,-8.686626455343507175e-05,-2.117416817350808132e-03
3.601784175217323525e-03,-8.695646834719925142e-05,-2.117416871957542197e-03
3.601784143081780600e-03,-8.704667214092734072e-05,-2.117416926620980470e-03
3.601784110912902362e-03,-8.713687593461928542e-05,-2.117416981341122949e-03
3.601784078710686642e-03,-8.722707972827507198e-05,-2.117417036117970070e-03
3.601784046475134740e-03,-8.731728352189467330e-05,-2.117417090951520964e-03
3.601784014206246224e-03,-8.740748731547804871e-05,-2.117417145841776066e-03
3.601783981904021961e-03,-8.749769110902513045e-05,-2.117417200788735809e-03
3.601783949568461082e-03,-8.758789490253593207e-05,-2.117417255792400192e-03
3.601783917199562288e-03,-8.767809869601037227e-05,-2.117417310852768783e-03
3.601783884797328181e-03,-8.776830248944841038e-05,-2.117417365969841148e-03
3.601783852361758326e-03,-8.785850628285005995e-05,-2.117417421143618153e-03
3.601783819892850989e-03,-8.794871007621521256e-05,-2.117417476374099366e-03
3.601783787390607037e-03,-8.803891386954390888e-05,-2.117417531661285220e-03
3.601783754855026904e-03,-8.812911766283604048e-05,-2.117417587005175281e-03
3.601783722286110156e-03,-8.821932145609160736e-05,-2.117417642405769549e-03
3.601783689683858095e-03,-8.830952524931055532e-05,-2.117417697863067157e-03
3.601783657048267685e-03,-8.839972904249287079e-05,-2.117417753377070708e-03
3.601783624379341960e-03,-8.848993283563849957e-05,-2.117417808947777598e-03
3.601783591677079621e-03,-8.858013662874741456e-05,-2.117417864575188696e-03
3.601783558941480667e-03,-8.867034042181953443e-05,-2.117417920259304868e-03
3.601783526172545099e-03,-8.876054421485489985e-05,-2.117417976000124814e-03
3.601783493370273349e-03,-8.885074800785342950e-05,-2.117418031797648967e-03
3.601783460534664551e-03,-8.894095180081505563e-05,-2.117418087651876894e-03
3.601783427665720006e-03,-8.903115559373979177e-05,-2.117418143562809895e-03
3.601783394763437979e-03,-8.912135938662758372e-05,-2.117418199530447537e-03
3.601783361827820204e-03,-8.921156317947839082e-05,-2.117418255554788086e-03
3.601783328858866248e-03,-8.930176697229217243e-05,-2.117418311635834143e-03
3.601783295856574377e-03,-8.939197076506888787e-05,-2.117418367773583540e-03
3.601783262820947192e-03,-8.948217455780852359e-05,-2.117418423968038445e-03
3.601783229751982524e-03,-8.957237835051103895e-05,-2.117418480219196257e-03
3.601783196649682543e-03,-8.966258214317635261e-05,-2.117418536527059143e-03
3.601783163514045514e-03,-8.975278593580447814e-05,-2.117418592891626237e-03
3.601783130345071436e-03,-8.984298972839533423e-05,-2.117418649312897538e-03
3.601783097142760744e-03,-8.993319352094892086e-05,-2.117418705790873046e-03
3.601783063907114304e-03,-9.002339731346517028e-05,-2.117418762325552761e-03
3.601783030638131249e-03,-9.011360110594406894e-05,-2.117418818916937118e-03
3.601782997335811146e-03,-9.020380489838560327e-05,-2.117418875565025248e-03
3.601782964000155296e-03,-9.029400869078967843e-05,-2.117418932269817151e-03
3.601782930631162397e-03,-9.038421248315628084e-05,-2.117418989031314130e-03
3.601782897228832450e-03,-9.047441627548538342e-05,-2.117419045849515749e-03
3.601782863793166756e-03,-9.056462006777694549e-05,-2.117419102724421142e-03
3.601782830324164447e-03,-9.065482386003089930e-05,-2.117419159656030742e-03
3.601782796821825089e-03,-9.074502765224725840e-05,-2.117419216644344116e-03
3.601782763286149550e-03,-9.083523144442596858e-05,-2.117419273689362565e-03
3.601782729717137397e-03,-9.092543523656694852e-05,-2.117419330791084787e-03
3.601782696114788195e-03,-9.101563902867019823e-05,-2.117419387949511216e-03
3.601782662479102379e-03,-9.110584282073570415e-05,-2.117419445164642720e-03
3.601782628810080815e-03,-9.119604661276339852e-05,-2.117419502436477564e-03
3.601782595107722203e-03,-9.128625040475322713e-05,-2.117419559765017049e-03
3.601782561372027409e-03,-9.137645419670520353e-05,-2.117419617150260308e-03
3.601782527602995134e-03,-9.146665798861923285e-05,-2.117419674592208208e-03
3.601782493800627545e-03,-9.155686178049531510e-05,-2.117419732090860315e-03
3.601782459964922474e-03,-9.164706557233339606e-05,-2.117419789646216195e-03
3.601782426095881222e-03,-9.173726936413343508e-05,-2.117419847258276717e-03
3.601782392193503355e-03,-9.182747315589543215e-05,-2.117419904927041879e-03
3.601782358257788440e-03,-9.191767694761930597e-05,-2.117419962652510382e-03
3.601782324288737777e-03,-9.200788073930504297e-05,-2.117420020434683525e-03
3.601782290286349199e-03,-9.209808453095260250e-05,-2.117420078273561310e-03
3.601782256250624873e-03,-9.218828832256191681e-05,-2.117420136169143301e-03
3.601782222181563933e-03,-9.227849211413298588e-05,-2.117420194121429067e-03
3.601782188079166377e-03,-9.236869590566576906e-05,-2.117420252130419039e-03
3.601782153943432208e-03,-9.245889969716022570e-05,-2.117420310196113653e-03
3.601782119774361423e-03,-9.254910348861627447e-05,-2.117420368318512040e-03
3.601782085571954457e-03,-9.263930728003396959e-05,-2.117420426497614635e-03
3.601782051336210010e-03,-9.272951107141318909e-05,-2.117420484733421870e-03
3.601782017067129381e-03,-9.281971486275393296e-05,-2.117420543025933313e-03
3.601781982764712137e-03,-9.290991865405616055e-05,-2.117420601375148530e-03
3.601781948428957845e-03,-9.300012244531983120e-05,-2.117420659781067954e-03
3.601781914059867806e-03,-9.309032623654490426e-05,-2.117420718243692018e-03
3.601781879657440719e-03,-9.318053002773135261e-05,-2.117420776763019857e-03
3.601781845221677016e-03,-9.327073381887913560e-05,-2.117420835339051902e-03
3.601781810752576266e-03,-9.336093760998818547e-05,-2.117420893971789023e-03
3.601781776250138900e-03,-9.345114140105851576e-05,-2.117420952661229917e-03
3.601781741714365354e-03,-9.354134519209007228e-05,-2.117421011407374151e-03
3.601781707145255192e-03,-9.363154898308277370e-05,-2.117421070210223025e-03
3.601781672542807983e-03,-9.372175277403666069e-05,-2.117421129069776541e-03
3.601781637907024158e-03,-9.381195656495161126e-05,-2.117421187986034264e-03
3.601781603237904153e-03,-9.390216035582766609e-05,-2.117421246958995761e-03
3.601781568535446666e-03,-9.399236414666474384e-05,-2.117421305988661899e-03
3.601781533799653864e-03,-9.408256793746281742e-05,-2.117421365075031810e-03
3.601781499030523581e-03,-9.417277172822183262e-05,-2.117421424218106363e-03
3.601781464228056250e-03,-9.426297551894177588e-05,-2.117421483417884689e-03
3.601781429392252303e-03,-9.435317930962262010e-05,-2.117421542674367222e-03
3.601781394523112610e-03,-9.444338310026427041e-05,-2.117421601987553529e-03
3.601781359620635434e-03,-9.453358689086676747e-05,-2.117421661357444911e-03
3.601781324684822077e-03,-9.462379068142997575e-05,-2.117421720784040499e-03
3.601781289715671672e-03,-9.471399447195399013e-05,-2.117421780267339428e-03
3.601781254713184218e-03,-9.480419826243864797e-05,-2.117421839807342998e-03
3.601781219677361017e-03,-9.489440205288397637e-05,-2.117421899404050342e-03
3.601781184608200334e-03,-9.498460584328994824e-05,-2.117421959057462326e-03
3.601781149505703036e-03,-9.507480963365646869e-05,-2.117422018767578951e-03
3.601781114369869558e-03,-9.516501342398355130e-05,-2.117422078534398917e-03
3.601781079200699898e-03,-9.525521721427112828e-05,-2.117422138357923957e-03
3.601781043998192322e-03,-9.534542100451918610e-05,-2.117422198238151903e-03
3.601781008762348132e-03,-9.543562479472765699e-05,-2.117422258175084490e-03
3.601780973493168194e-03,-9.552582858489655450e-05,-2.117422318168721285e-03
3.601780938190650341e-03,-9.561603237502577020e-05,-2.117422378219062720e-03
3.601780902854796740e-03,-9.570623616511533122e-05,-2.117422438326108363e-03
3.601780867485606091e-03,-9.579643995516516977e-05,-2.117422498489856912e-03
3.601780832083079260e-03,-9.588664374517524521e-05,-2.117422558710310536e-03
3.601780796647214948e-03,-9.597684753514554399e-05,-2.117422618987468801e-03
3.601780761178014021e-03,-9.606705132507601188e-05,-2.117422679321330839e-03
3.601780725675476046e-03,-9.615725511496660825e-05,-2.117422739711896217e-03
3.601780690139602323e-03,-9.624745890481731952e-05,-2.117422800159166237e-03
3.601780654570391552e-03,-9.633766269462806439e-05,-2.117422860663141330e-03
3.601780618967844166e-03,-9.642786648439881576e-05,-2.117422921223818897e-03
3.601780583331958864e-03,-9.651807027412958716e-05,-2.117422981841201972e-03
3.601780547662737815e-03,-9.660827406382027020e-05,-2.117423042515289254e-03
3.601780511960179718e-03,-9.669847785347087841e-05,-2.117423103246079876e-03
3.601780476224285873e-03,-9.678868164308135759e-05,-2.117423164033574706e-03
3.601780440455054546e-03,-9.687888543265166707e-05,-2.117423224877773742e-03
3.601780404652486171e-03,-9.696908922218176621e-05,-2.117423285778676986e-03
3.601780368816580747e-03,-9.705929301167164145e-05,-2.117423346736284871e-03
3.601780332947339576e-03,-9.714949680112122503e-05,-2.117423407750596530e-03
3.601780297044760923e-03,-9.723970059053046273e-05,-2.117423468821612396e-03
3.601780261108846089e-03,-9.732990437989939522e-05,-2.117423529949331602e-03
3.601780225139593773e-03,-9.742010816922792762e-05,-2.117423591133755448e-03
3.601780189137005275e-03,-9.751031195851601928e-05,-2.117423652374884370e-03
3.601780153101079730e-03,-9.760051574776362955e-05,-2.117423713672716198e-03
3.601780117031818003e-03,-9.769071953697075841e-05,-2.117423775027252666e-03
3.601780080929218360e-03,-9.778092332613733811e-05,-2.117423836438493343e-03
3.601780044793283404e-03,-9.787112711526334155e-05,-2.117423897906437359e-03
3.601780008624010966e-03,-9.796133090434872806e-05,-2.117423959431086449e-03
3.601779972421400612e-03,-9.805153469339345700e-05,-2.117424021012439313e-03
3.601779936185454511e-03,-9.814173848239750124e-05,-2.117424082650496385e-03
3.601779899916172662e-03,-9.823194227136083370e-05,-2.117424144345257230e-03
3.601779863613552898e-03,-9.832214606028335949e-05,-2.117424206096722716e-03
3.601779827277596085e-03,-9.841234984916510573e-05,-2.117424267904891976e-03
3.601779790908302657e-03,-9.850255363800601821e-05,-2.117424329769765443e-03
3.601779754505671748e-03,-9.859275742680605626e-05,-2.117424391691343118e-03
3.601779718069705524e-03,-9.868296121556515213e-05,-2.117424453669624132e-03
3.601779681600401819e-03,-9.877316500428330581e-05,-2.117424515704609787e-03
3.601779645097761499e-03,-9.886336879296047666e-05,-2.117424577796300084e-03
3.601779608561783697e-03,-9.895357258159659690e-05,-2.117424639944694154e-03
3.601779571992470581e-03,-9.904377637019169363e-05,-2.117424702149791563e-03
3.601779535389818682e-03,-9.913398015874564490e-05,-2.117424764411594048e-03
3.601779498753831469e-03,-9.922418394725846425e-05,-2.117424826730100306e-03
3.601779462084506774e-03,-9.931438773573011101e-05,-2.117424889105310772e-03
3.601779425381845465e-03,-9.940459152416055810e-05,-2.117424951537225011e-03
3.601779388645847107e-03,-9.949479531254975129e-05,-2.117425014025843891e-03
3.601779351876512134e-03,-9.958499910089763638e-05,-2.117425076571166111e-03
3.601779315073840113e-03,-9.967520288920419982e-05,-2.117425139173192972e-03
3.601779278237831478e-03,-9.976540667746940094e-05,-2.117425201831923173e-03
3.601779241368486227e-03,-9.985561046569319909e-05,-2.117425264547358014e-03
3.601779204465803928e-03,-9.994581425387555362e-05,-2.117425327319497497e-03
3.601779167529784581e-03,-1.000360180420164239e-04,-2.117425390148339887e-03
3.601779130560428619e-03,-1.001262218301157963e-04,-2.117425453033887350e-03
3.601779093557735175e-03,-1.002164256181736031e-04,-2.117425515976138588e-03
3.601779056521705550e-03,-1.003066294061898307e-04,-2.117425578975093599e-03
3.601779019452338443e-03,-1.003968331941644250e-04,-2.117425642030753251e-03
3.601778982349635155e-03,-1.004870369820973588e-04,-2.117425705143116243e-03
3.601778945213594384e-03,-1.005772407699885644e-04,-2.117425768312183876e-03
3.601778908044217867e-03,-1.006674445578380553e-04,-2.117425831537954849e-03
3.601778870841503433e-03,-1.007576483456457773e-04,-2.117425894820430896e-03
3.601778833605451952e-03,-1.008478521334116627e-04,-2.117425958159610284e-03
3.601778796336064722e-03,-1.009380559211357114e-04,-2.117426021555493879e-03
3.601778759033339144e-03,-1.010282597088178692e-04,-2.117426085008081681e-03
3.601778721697278685e-03,-1.011184634964580820e-04,-2.117426148517374124e-03
3.601778684327879444e-03,-1.012086672840563633e-04,-2.117426212083369473e-03
3.601778646925144021e-03,-1.012988710716126317e-04,-2.117426275706069030e-03
3.601778609489071116e-03,-1.013890748591268331e-04,-2.117426339385473227e-03
3.601778572019662464e-03,-1.014792786465989945e-04,-2.117426403121581199e-03
3.601778534516915896e-03,-1.015694824340290347e-04,-2.117426466914393377e-03
3.601778496980833581e-03,-1.016596862214169265e-04,-2.117426530763908896e-03
3.601778459411413350e-03,-1.017498900087626022e-04,-2.117426594670129489e-03
3.601778421808656504e-03,-1.018400937960660618e-04,-2.117426658633053856e-03
3.601778384172562610e-03,-1.019302975833272511e-04,-2.117426722652681996e-03
3.601778346503132101e-03,-1.020205013705461700e-04,-2.117426786729014344e-03
3.601778308800364977e-03,-1.021107051577227373e-04,-2.117426850862051332e-03
3.601778271064259938e-03,-1.022009089448569123e-04,-2.117426915051791227e-03
3.601778233294819151e-03,-1.022911127319486814e-04,-2.117426979298234896e-03
3.601778195492040448e-03,-1.023813165189980040e-04,-2.117427043601383639e-03
3.601778157655925131e-03,-1.024715203060048258e-04,-2.117427107961236156e-03
3.601778119786473199e-03,-1.025617240929691334e-04,-2.117427172377792880e-03
3.601778081883684219e-03,-1.026519278798908861e-04,-2.117427236851053378e-03
3.601778043947558624e-03,-1.027421316667700160e-04,-2.117427301381018083e-03
3.601778005978095113e-03,-1.028323354536065369e-04,-2.117427365967686128e-03
3.601777967975294988e-03,-1.029225392404003537e-04,-2.117427430611058814e-03
3.601777929939158247e-03,-1.030127430271514664e-04,-2.117427495311135707e-03
3.601777891869684459e-03,-1.031029468138598346e-04,-2.117427560067916374e-03
3.601777853766873622e-03,-1.031931506005254038e-04,-2.117427624881400815e-03
3.601777815630726170e-03,-1.032833543871481742e-04,-2.117427689751589463e-03
3.601777777461241236e-03,-1.033735581737280508e-04,-2.117427754678481884e-03
3.601777739258419687e-03,-1.034637619602650472e-04,-2.117427819662078946e-03
3.601777701022261090e-03,-1.035539657467590821e-04,-2.117427884702379349e-03
3.601777662752764578e-03,-1.036441695332101555e-04,-2.117427949799383959e-03
3.601777624449932751e-03,-1.037343733196182131e-04,-2.117428014953092776e-03
3.601777586113763443e-03,-1.038245771059832144e-04,-2.117428080163505800e-03
3.601777547744257086e-03,-1.039147808923051458e-04,-2.117428145430622164e-03
3.601777509341413681e-03,-1.040049846785839394e-04,-2.117428210754442736e-03
3.601777470905232360e-03,-1.040951884648195683e-04,-2.117428276134967514e-03
3.601777432435715291e-03,-1.041853922510120053e-04,-2.117428341572196067e-03
3.601777393932860741e-03,-1.042755960371612097e-04,-2.117428407066128393e-03
3.601777355396669142e-03,-1.043657998232671273e-04,-2.117428472616765360e-03
3.601777316827140928e-03,-1.044560036093297311e-04,-2.117428538224106101e-03
3.601777278224276100e-03,-1.045462073953490074e-04,-2.117428603888150615e-03
3.601777239588073356e-03,-1.046364111813248885e-04,-2.117428669608899337e-03
3.601777200918533997e-03,-1.047266149672573067e-04,-2.117428735386351832e-03
3.601777162215657590e-03,-1.048168187531462890e-04,-2.117428801220508534e-03
3.601777123479444568e-03,-1.049070225389917677e-04,-2.117428867111369011e-03
3.601777084709894064e-03,-1.049972263247937428e-04,-2.117428933058934128e-03
3.601777045907006512e-03,-1.050874301105521059e-04,-2.117428999063202151e-03
3.601777007070781477e-03,-1.051776338962668569e-04,-2.117429065124174815e-03
3.601776968201220262e-03,-1.052678376819379688e-04,-2.117429131241851253e-03
3.601776929298322431e-03,-1.053580414675654009e-04,-2.117429197416231899e-03
3.601776890362087119e-03,-1.054482452531491126e-04,-2.117429263647316318e-03
3.601776851392513891e-03,-1.055384490386890496e-04,-2.117429329935104510e-03
3.601776812389604048e-03,-1.056286528241852119e-04,-2.117429396279596910e-03
3.601776773353357157e-03,-1.057188566096375047e-04,-2.117429462680793517e-03
3.601776734283773651e-03,-1.058090603950459415e-04,-2.117429529138693464e-03
3.601776695180853530e-03,-1.058992641804104546e-04,-2.117429595653297619e-03
3.601776656044595494e-03,-1.059894679657310033e-04,-2.117429662224605980e-03
3.601776616874999976e-03,-1.060796717510076011e-04,-2.117429728852618116e-03
3.601776577672068710e-03,-1.061698755362401668e-04,-2.117429795537334025e-03
3.601776538435800395e-03,-1.062600793214286461e-04,-2.117429862278754574e-03
3.601776499166193732e-03,-1.063502831065730390e-04,-2.117429929076878464e-03
3.601776459863250887e-03,-1.064404868916733320e-04,-2.117429995931706561e-03
3.601776420526970560e-03,-1.065306906767294031e-04,-2.117430062843238432e-03
3.601776381157353185e-03,-1.066208944617412795e-04,-2.117430129811473643e-03
3.601776341754398762e-03,-1.067110982467089068e-04,-2.117430196836413928e-03
3.601776302318107723e-03,-1.068013020316322444e-04,-2.117430263918057554e-03
3.601776262848478769e-03,-1.068915058165112653e-04,-2.117430331056405820e-03
3.601776223345513634e-03,-1.069817096013459153e-04,-2.117430398251456992e-03
3.601776183809211884e-03,-1.070719133861361807e-04,-2.117430465503212806e-03
3.601776144239571351e-03,-1.071621171708820073e-04,-2.117430532811671959e-03
3.601776104636595071e-03,-1.072523209555833681e-04,-2.117430600176835320e-03
3.601776065000281309e-03,-1.073425247402402089e-04,-2.117430667598702888e-03
3.601776025330629630e-03,-1.074327285248524890e-04,-2.117430735077274230e-03
3.601775985627642205e-03,-1.075229323094202083e-04,-2.117430802612549345e-03
3.601775945891316864e-03,-1.076131360939432856e-04,-2.117430870204528668e-03
3.601775906121654908e-03,-1.077033398784217074e-04,-2.117430937853210897e-03
3.601775866318655470e-03,-1.077935436628554600e-04,-2.117431005558598634e-03
3.601775826482318116e-03,-1.078837474472444215e-04,-2.117431073320689278e-03
3.601775786612645015e-03,-1.079739512315886461e-04,-2.117431141139484562e-03
3.601775746709634431e-03,-1.080641550158880661e-04,-2.117431209014983187e-03
3.601775706773286800e-03,-1.081543588001426001e-04,-2.117431276947185585e-03
3.601775666803601686e-03,-1.082445625843522752e-04,-2.117431344936092190e-03
3.601775626800579957e-03,-1.083347663685170373e-04,-2.117431412981702135e-03
3.601775586764220313e-03,-1.084249701526368050e-04,-2.117431481084017155e-03
3.601775546694524054e-03,-1.085151739367116324e-04,-2.117431549243035081e-03
3.601775506591489880e-03,-1.086053777207413842e-04,-2.117431617458757648e-03
3.601775466455119958e-03,-1.086955815047260603e-04,-2.117431685731183556e-03
3.601775426285411686e-03,-1.087857852886656336e-04,-2.117431754060313670e-03
3.601775386082366366e-03,-1.088759890725600769e-04,-2.117431822446147558e-03
3.601775345845984432e-03,-1.089661928564092955e-04,-2.117431890888685220e-03
3.601775305576265882e-03,-1.090563966402133299e-04,-2.117431959387926655e-03
3.601775265273209417e-03,-1.091466004239720989e-04,-2.117432027943872731e-03
3.601775224936815470e-03,-1.092368042076855618e-04,-2.117432096556522148e-03
3.601775184567084908e-03,-1.093270079913536915e-04,-2.117432165225874904e-03
3.601775144164016430e-03,-1.094172117749764338e-04,-2.117432233951932734e-03
3.601775103727612205e-03,-1.095074155585537887e-04,-2.117432302734693472e-03
3.601775063257869197e-03,-1.095976193420857020e-04,-2.117432371574158416e-03
3.601775022754790008e-03,-1.096878231255721194e-04,-2.117432440470327134e-03
3.601774982218373337e-03,-1.097780269090130274e-04,-2.117432509423200493e-03
3.601774941648619617e-03,-1.098682306924083447e-04,-2.117432578432777192e-03
3.601774901045528849e-03,-1.099584344757581120e-04,-2.117432647499057231e-03
3.601774860409100599e-03,-1.100486382590621937e-04,-2.117432716622041911e-03
3.601774819739335300e-03,-1.101388420423206441e-04,-2.117432785801729930e-03
3.601774779036232520e-03,-1.102290458255333682e-04,-2.117432855038122157e-03
3.601774738299793124e-03,-1.103192496087003390e-04,-2.117432924331218158e-03
3.601774697530015813e-03,-1.104094533918215294e-04,-2.117432993681017499e-03
3.601774656726901887e-03,-1.104996571748968987e-04,-2.117433063087521914e-03
3.601774615890450480e-03,-1.105898609579264197e-04,-2.117433132550728802e-03
3.601774575020661590e-03,-1.106800647409100519e-04,-2.117433202070640764e-03
3.601774534117536519e-03,-1.107702685238477275e-04,-2.117433271647255633e-03
3.601774493181072664e-03,-1.108604723067394465e-04,-2.117433341280575143e-03
3.601774452211272629e-03,-1.109506760895851275e-04,-2.117433410970598427e-03
3.601774411208135546e-03,-1.110408798723848113e-04,-2.117433480717324616e-03
3.601774370171660546e-03,-1.111310836551383758e-04,-2.117433550520755447e-03
3.601774329101848499e-03,-1.112212874378458482e-04,-2.117433620380890485e-03
3.601774287998699402e-03,-1.113114912205071200e-04,-2.117433690297728429e-03
3.601774246862213258e-03,-1.114016950031222454e-04,-2.117433760271270581e-03
3.601774205692390065e-03,-1.114918987856910890e-04,-2.117433830301516506e-03
3.601774164489228956e-03,-1.115821025682137049e-04,-2.117433900388466638e-03
3.601774123252730365e-03,-1.116723063506899847e-04,-2.117433970532120544e-03
3.601774081982894726e-03,-1.117625101331199013e-04,-2.117434040732478224e-03
3.601774040679722472e-03,-1.118527139155034818e-04,-2.117434110989539677e-03
3.601773999343212303e-03,-1.119429176978406314e-04,-2.117434181303304904e-03
3.601773957973365085e-03,-1.120331214801313093e-04,-2.117434251673773905e-03
3.601773916570180818e-03,-1.121233252623754886e-04,-2.117434322100947112e-03
3.601773875133659070e-03,-1.122135290445731420e-04,-2.117434392584824094e-03
3.601773833663800273e-03,-1.123037328267242153e-04,-2.117434463125403982e-03
3.601773792160603994e-03,-1.123939366088287086e-04,-2.117434533722688944e-03
3.601773750624070233e-03,-1.124841403908865135e-04,-2.117434604376676379e-03
3.601773709054199423e-03,-1.125743441728976706e-04,-2.117434675087368889e-03
3.601773667450991132e-03,-1.126645479548620985e-04,-2.117434745854764305e-03
3.601773625814446225e-03,-1.127547517367797703e-04,-2.117434816678864361e-03
3.601773584144562970e-03,-1.128449555186506452e-04,-2.117434887559667758e-03
3.601773542441343533e-03,-1.129351593004746825e-04,-2.117434958497174929e-03
3.601773500704786180e-03,-1.130253630822518416e-04,-2.117435029491385873e-03
3.601773458934891779e-03,-1.131155668639821090e-04,-2.117435100542300590e-03
3.601773417131659463e-03,-1.132057706456654440e-04,-2.117435171649919949e-03
3.601773375295090531e-03,-1.132959744273017788e-04,-2.117435242814241780e-03
3.601773333425183684e-03,-1.133861782088910864e-04,-2.117435314035268253e-03
3.601773291521939788e-03,-1.134763819904333396e-04,-2.117435385312998065e-03
3.601773249585359278e-03,-1.135665857719285384e-04,-2.117435456647432084e-03
3.601773207615440852e-03,-1.136567895533765338e-04,-2.117435528038569444e-03
3.601773165612184510e-03,-1.137469933347774205e-04,-2.117435599486411444e-03
3.601773123575591554e-03,-1.138371971161310497e-04,-2.117435670990956784e-03
3.601773081505661115e-03,-1.139274008974374889e-04,-2.117435742552205465e-03
3.601773039402393194e-03,-1.140176046786966162e-04,-2.117435814170158352e-03
3.601772997265788225e-03,-1.141078084599084181e-04,-2.117435885844815013e-03
3.601772955095845340e-03,-1.141980122410728811e-04,-2.117435957576175448e-03
3.601772912892566274e-03,-1.142882160221899508e-04,-2.117436029364239223e-03
3.601772870655948425e-03,-1.143784198032595732e-04,-2.117436101209007205e-03
3.601772828385993962e-03,-1.144686235842817210e-04,-2.117436173110478961e-03
3.601772786082702450e-03,-1.145588273652563673e-04,-2.117436245068654490e-03
3.601772743746073022e-03,-1.146490311461834848e-04,-2.117436317083534227e-03
3.601772701376106112e-03,-1.147392349270630194e-04,-2.117436389155117303e-03
3.601772658972802153e-03,-1.148294387078949169e-04,-2.117436461283403720e-03
3.601772616536161147e-03,-1.149196424886791908e-04,-2.117436533468394343e-03
3.601772574066182658e-03,-1.150098462694157462e-04,-2.117436605710088307e-03
3.601772531562866687e-03,-1.151000500501045697e-04,-2.117436678008486912e-03
3.601772489026213234e-03,-1.151902538307456205e-04,-2.117436750363588856e-03
3.601772446456222732e-03,-1.152804576113388715e-04,-2.117436822775394141e-03
3.601772403852893881e-03,-1.153706613918843092e-04,-2.117436895243903633e-03
3.601772361216227982e-03,-1.154608651723818252e-04,-2.117436967769116898e-03
3.601772318546225034e-03,-1.155510689528314465e-04,-2.117437040351033938e-03
3.601772275842884605e-03,-1.156412727332330648e-04,-2.117437112989654317e-03
3.601772233106207127e-03,-1.157314765135867342e-04,-2.117437185684978036e-03
3.601772190336191733e-03,-1.158216802938923871e-04,-2.117437258437006829e-03
3.601772147532839290e-03,-1.159118840741499420e-04,-2.117437331245738096e-03
3.601772104696148932e-03,-1.160020878543593990e-04,-2.117437404111174003e-03
3.601772061826121526e-03,-1.160922916345207175e-04,-2.117437477033313684e-03
3.601772018922756637e-03,-1.161824954146338567e-04,-2.117437550012156704e-03
3.601771975986054267e-03,-1.162726991946987489e-04,-2.117437623047703065e-03
3.601771933016015281e-03,-1.163629029747154076e-04,-2.117437696139954067e-03
3.601771890012638380e-03,-1.164531067546837923e-04,-2.117437769288907975e-03
3.601771846975923130e-03,-1.165433105346038079e-04,-2.117437842494566524e-03
3.601771803905871264e-03,-1.166335143144754953e-04,-2.117437915756927979e-03
3.601771760802481917e-03,-1.167237180942987595e-04,-2.117437989075993208e-03
3.601771717665754654e-03,-1.168139218740735463e-04,-2.117438062451762644e-03
3.601771674495690776e-03,-1.169041256537999235e-04,-2.117438135884234986e-03
3.601771631292288983e-03,-1.169943294334777149e-04,-2.117438209373411970e-03
3.601771588055550141e-03,-1.170845332131069882e-04,-2.117438282919292293e-03
3.601771544785472515e-03,-1.171747369926876757e-04,-2.117438356521875956e-03
3.601771501482058276e-03,-1.172649407722197096e-04,-2.117438430181163827e-03
3.601771458145307421e-03,-1.173551445517030900e-04,-2.117438503897155471e-03
3.601771414775218651e-03,-1.174453483311377490e-04,-2.117438577669850455e-03
3.601771371371791531e-03,-1.175355521105237274e-04,-2.117438651499249213e-03
3.601771327935027796e-03,-1.176257558898608218e-04,-2.117438725385351744e-03
3.601771284464926146e-03,-1.177159596691491813e-04,-2.117438799328158049e-03
3.601771240961487448e-03,-1.178061634483886704e-04,-2.117438873327668128e-03
3.601771197424710833e-03,-1.178963672275792348e-04,-2.117438947383881546e-03
3.601771153854597170e-03,-1.179865710067209018e-04,-2.117439021496798739e-03
3.601771110251145592e-03,-1.180767747858135899e-04,-2.117439095666420138e-03
3.601771066614356965e-03,-1.181669785648572721e-04,-2.117439169892744878e-03
3.601771022944229989e-03,-1.182571823438519212e-04,-2.117439244175773391e-03
3.601770979240765964e-03,-1.183473861227974695e-04,-2.117439318515505677e-03
3.601770935503964891e-03,-1.184375899016939441e-04,-2.117439392911941737e-03
3.601770891733825902e-03,-1.185277936805412231e-04,-2.117439467365080270e-03
3.601770847930349431e-03,-1.186179974593393335e-04,-2.117439541874923444e-03
3.601770804093535044e-03,-1.187082012380881940e-04,-2.117439616441470392e-03
3.601770760223383609e-03,-1.187984050167877910e-04,-2.117439691064721546e-03
3.601770716319895125e-03,-1.188886087954380840e-04,-2.117439765744675607e-03
3.601770672383068726e-03,-1.189788125740390593e-04,-2.117439840481333008e-03
3.601770628412904410e-03,-1.190690163525906357e-04,-2.117439915274695050e-03
3.601770584409403047e-03,-1.191592201310928131e-04,-2.117439990124759999e-03
3.601770540372563768e-03,-1.192494239095455102e-04,-2.117440065031529154e-03
3.601770496302387006e-03,-1.193396276879487542e-04,-2.117440139995002083e-03
3.601770452198873197e-03,-1.194298314663024365e-04,-2.117440215015177919e-03
3.601770408062020604e-03,-1.195200352446065844e-04,-2.117440290092057961e-03
3.601770363891832263e-03,-1.196102390228611029e-04,-2.117440365225641344e-03
3.601770319688304706e-03,-1.197004428010659650e-04,-2.117440440415928066e-03
3.601770275451440968e-03,-1.197906465792211570e-04,-2.117440515662918563e-03
3.601770231181238447e-03,-1.198808503573266384e-04,-2.117440590966613700e-03
3.601770186877699745e-03,-1.199710541353823955e-04,-2.117440666327011743e-03
3.601770142540822693e-03,-1.200612579133883065e-04,-2.117440741744113560e-03
3.601770098170607726e-03,-1.201514616913444390e-04,-2.117440817217918284e-03
3.601770053767055710e-03,-1.202416654692506847e-04,-2.117440892748427648e-03
3.601770009330165778e-03,-1.203318692471070300e-04,-2.117440968335640786e-03
3.601769964859938365e-03,-1.204220730249134342e-04,-2.117441043979556396e-03
3.601769920356373035e-03,-1.205122768026698431e-04,-2.117441119680176648e-03
3.601769875819470657e-03,-1.206024805803762703e-04,-2.117441195437500673e-03
3.601769831249231231e-03,-1.206926843580326616e-04,-2.117441271251528038e-03
3.601769786645653022e-03,-1.207828881356388950e-04,-2.117441347122258309e-03
3.601769742008736896e-03,-1.208730919131950518e-04,-2.117441423049693221e-03
3.601769697338484157e-03,-1.209632956907009965e-04,-2.117441499033831040e-03
3.601769652634894368e-03,-1.210534994681567833e-04,-2.117441575074672632e-03
3.601769607897966231e-03,-1.211437032455623037e-04,-2.117441651172217998e-03
3.601769563127700177e-03,-1.212339070229175578e-04,-2.117441727326466704e-03
3.601769518324097075e-03,-1.213241108002224914e-04,-2.117441803537419617e-03
3.601769473487156058e-03,-1.214143145774771181e-04,-2.117441879805075870e-03
3.601769428616877558e-03,-1.215045183546812886e-04,-2.117441956129435462e-03
3.601769383713260709e-03,-1.215947221318350709e-04,-2.117442032510498829e-03
3.601769338776306811e-03,-1.216849259089383700e-04,-2.117442108948265969e-03
3.601769293806014998e-03,-1.217751296859911453e-04,-2.117442185442736449e-03
3.601769248802386136e-03,-1.218653334629934103e-04,-2.117442261993910703e-03
3.601769203765418925e-03,-1.219555372399450972e-04,-2.117442338601788730e-03
3.601769158695114666e-03,-1.220457410168461791e-04,-2.117442415266370531e-03
3.601769113591472490e-03,-1.221359447936965880e-04,-2.117442491987655672e-03
3.601769068454493267e-03,-1.222261485704963105e-04,-2.117442568765644153e-03
3.601769023284175694e-03,-1.223163523472452923e-04,-2.117442645600336407e-03
3.601768978080520638e-03,-1.224065561239435335e-04,-2.117442722491732002e-03
3.601768932843527667e-03,-1.224967599005909527e-04,-2.117442799439831370e-03
3.601768887573197648e-03,-1.225869636771875770e-04,-2.117442876444634511e-03
3.601768842269529713e-03,-1.226771674537333252e-04,-2.117442953506140993e-03
3.601768796932523428e-03,-1.227673712302280887e-04,-2.117443030624351248e-03
3.601768751562180095e-03,-1.228575750066719760e-04,-2.117443107799265277e-03
3.601768706158498846e-03,-1.229477787830648245e-04,-2.117443185030882646e-03
3.601768660721480549e-03,-1.230379825594066342e-04,-2.117443262319203788e-03
3.601768615251123903e-03,-1.231281863356974322e-04,-2.117443339664227837e-03
3.601768569747429774e-03,-1.232183901119370830e-04,-2.117443417065956093e-03
3.601768524210397730e-03,-1.233085938881256136e-04,-2.117443494524387255e-03
3.601768478640028637e-03,-1.233987976642629699e-04,-2.117443572039523058e-03
3.601768433036321628e-03,-1.234890014403491247e-04,-2.117443649611360900e-03
3.601768387399276270e-03,-1.235792052163839968e-04,-2.117443727239903817e-03
3.601768341728893430e-03,-1.236694089923676132e-04,-2.117443804925149640e-03
3.601768296025172674e-03,-1.237596127682998655e-04,-2.117443882667099236e-03
3.601768250288114870e-03,-1.238498165441808080e-04,-2.117443960465751739e-03
3.601768204517719150e-03,-1.239400203200103051e-04,-2.117444038321108449e-03
3.601768158713985080e-03,-1.240302240957883839e-04,-2.117444116233168500e-03
3.601768112876913962e-03,-1.241204278715149901e-04,-2.117444194201931890e-03
3.601768067006504929e-03,-1.242106316471900697e-04,-2.117444272227399487e-03
3.601768021102757979e-03,-1.243008354228135955e-04,-2.117444350309570424e-03
3.601767975165673548e-03,-1.243910391983855132e-04,-2.117444428448444702e-03
3.601767929195251634e-03,-1.244812429739058229e-04,-2.117444506644021885e-03
3.601767883191491371e-03,-1.245714467493744975e-04,-2.117444584896303710e-03
3.601767837154393626e-03,-1.246616505247914286e-04,-2.117444663205288440e-03
3.601767791083957965e-03,-1.247518543001566432e-04,-2.117444741570976945e-03
3.601767744980184822e-03,-1.248420580754701142e-04,-2.117444819993368789e-03
3.601767698843074197e-03,-1.249322618507317062e-04,-2.117444898472464407e-03
3.601767652672625223e-03,-1.250224656259415004e-04,-2.117444977008262931e-03
3.601767606468838333e-03,-1.251126694010994155e-04,-2.117445055600765663e-03
3.601767560231714394e-03,-1.252028731762053432e-04,-2.117445134249971734e-03
3.601767513961251672e-03,-1.252930769512593375e-04,-2.117445212955881579e-03
3.601767467657451469e-03,-1.253832807262613444e-04,-2.117445291718494764e-03
3.601767421320314650e-03,-1.254734845012113096e-04,-2.117445370537810855e-03
3.601767374949839048e-03,-1.255636882761092059e-04,-2.117445449413831154e-03
3.601767328546026398e-03,-1.256538920509549522e-04,-2.117445528346554792e-03
3.601767282108874965e-03,-1.257440958257486025e-04,-2.117445607335982204e-03
3.601767235638386050e-03,-1.258342996004900214e-04,-2.117445686382112523e-03
3.601767189134558785e-03,-1.259245033751792359e-04,-2.117445765484947048e-03
3.601767142597394906e-03,-1.260147071498161919e-04,-2.117445844644484480e-03
3.601767096026892677e-03,-1.261049109244008351e-04,-2.117445923860725686e-03
3.601767049423052532e-03,-1.261951146989331385e-04,-2.117446003133670231e-03
3.601767002785874038e-03,-1.262853184734130749e-04,-2.117446082463318550e-03
3.601766956115358929e-03,-1.263755222478406173e-04,-2.117446161849670643e-03
3.601766909411505471e-03,-1.264657260222157114e-04,-2.117446241292725642e-03
3.601766862674314097e-03,-1.265559297965382758e-04,-2.117446320792483981e-03
3.601766815903784807e-03,-1.266461335708083378e-04,-2.117446400348946094e-03
3.601766769099917168e-03,-1.267363373450258160e-04,-2.117446479962111546e-03
3.601766722262712481e-03,-1.268265411191907375e-04,-2.117446559631980772e-03
3.601766675392169877e-03,-1.269167448933030209e-04,-2.117446639358553338e-03
3.601766628488289358e-03,-1.270069486673625851e-04,-2.117446719141829678e-03
3.601766581551070490e-03,-1.270971524413694570e-04,-2.117446798981808924e-03
3.601766534580514573e-03,-1.271873562153235824e-04,-2.117446878878491943e-03
3.601766487576620740e-03,-1.272775599892249072e-04,-2.117446958831878737e-03
3.601766440539388124e-03,-1.273677637630734585e-04,-2.117447038841968002e-03
3.601766393468818894e-03,-1.274579675368691279e-04,-2.117447118908761475e-03
3.601766346364911314e-03,-1.275481713106118610e-04,-2.117447199032258722e-03
3.601766299227664950e-03,-1.276383750843016851e-04,-2.117447279212458875e-03
3.601766252057081539e-03,-1.277285788579385459e-04,-2.117447359449362802e-03
3.601766204853160212e-03,-1.278187826315223621e-04,-2.117447439742969634e-03
3.601766157615901402e-03,-1.279089864050531879e-04,-2.117447520093280675e-03
3.601766110345304243e-03,-1.279991901785308879e-04,-2.117447600500295055e-03
3.601766063041368735e-03,-1.280893939519554619e-04,-2.117447680964012775e-03
3.601766015704096612e-03,-1.281795977253268829e-04,-2.117447761484433835e-03
3.601765968333484839e-03,-1.282698014986450696e-04,-2.117447842061558234e-03
3.601765920929536884e-03,-1.283600052719100491e-04,-2.117447922695385541e-03
3.601765873492249279e-03,-1.284502090451217671e-04,-2.117448003385917488e-03
3.601765826021625060e-03,-1.285404128182801695e-04,-2.117448084133152341e-03
3.601765778517662490e-03,-1.286306165913852291e-04,-2.117448164937090534e-03
3.601765730980362439e-03,-1.287208203644368918e-04,-2.117448245797732068e-03
3.601765683409723605e-03,-1.288110241374351304e-04,-2.117448326715077808e-03
3.601765635805747722e-03,-1.289012279103798908e-04,-2.117448407689126021e-03
3.601765588168433056e-03,-1.289914316832711729e-04,-2.117448488719878008e-03
3.601765540497780908e-03,-1.290816354561089225e-04,-2.117448569807333335e-03
3.601765492793791278e-03,-1.291718392288930854e-04,-2.117448650951492001e-03
3.601765445056463299e-03,-1.292620430016236345e-04,-2.117448732152354442e-03
3.601765397285797837e-03,-1.293522467743005698e-04,-2.117448813409920222e-03
3.601765349481793593e-03,-1.294424505469238100e-04,-2.117448894724189342e-03
3.601765301644452300e-03,-1.295326543194933008e-04,-2.117448976095161802e-03
3.601765253773771356e-03,-1.296228580920090424e-04,-2.117449057522837602e-03
3.601765205869753798e-03,-1.297130618644709804e-04,-2.117449139007216742e-03
3.601765157932397890e-03,-1.298032656368790878e-04,-2.117449220548300089e-03
3.601765109961704500e-03,-1.298934694092333103e-04,-2.117449302146086343e-03
3.601765061957672761e-03,-1.299836731815336751e-04,-2.117449383800575503e-03
3.601765013920303540e-03,-1.300738769537800738e-04,-2.117449465511768870e-03
3.601764965849595535e-03,-1.301640807259724520e-04,-2.117449547279664709e-03
3.601764917745550049e-03,-1.302542844981108099e-04,-2.117449629104264323e-03
3.601764869608166646e-03,-1.303444882701951203e-04,-2.117449710985567710e-03
3.601764821437444461e-03,-1.304346920422253290e-04,-2.117449792923574436e-03
3.601764773233385661e-03,-1.305248958142014360e-04,-2.117449874918284503e-03
3.601764724995987644e-03,-1.306150995861233058e-04,-2.117449956969697476e-03
3.601764676725251711e-03,-1.307053033579909926e-04,-2.117450039077814657e-03
3.601764628421178730e-03,-1.307955071298044693e-04,-2.117450121242634310e-03
3.601764580083766966e-03,-1.308857109015636546e-04,-2.117450203464157736e-03
3.601764531713017286e-03,-1.309759146732685214e-04,-2.117450285742384936e-03
3.601764483308929690e-03,-1.310661184449189612e-04,-2.117450368077314609e-03
3.601764434871504612e-03,-1.311563222165150824e-04,-2.117450450468948489e-03
3.601764386400740318e-03,-1.312465259880567225e-04,-2.117450532917285275e-03
3.601764337896638541e-03,-1.313367297595439086e-04,-2.117450615422325835e-03
3.601764289359198849e-03,-1.314269335309765864e-04,-2.117450697984069735e-03
3.601764240788421240e-03,-1.315171373023547017e-04,-2.117450780602516541e-03
3.601764192184304849e-03,-1.316073410736782274e-04,-2.117450863277666687e-03
3.601764143546851409e-03,-1.316975448449471636e-04,-2.117450946009521041e-03
3.601764094876059186e-03,-1.317877486161614289e-04,-2.117451028798077867e-03
3.601764046171929481e-03,-1.318779523873209690e-04,-2.117451111643338466e-03
3.601763997434461427e-03,-1.319681561584258112e-04,-2.117451194545302839e-03
3.601763948663655023e-03,-1.320583599294758469e-04,-2.117451277503969685e-03
3.601763899859511137e-03,-1.321485637004711305e-04,-2.117451360519340305e-03
3.601763851022028035e-03,-1.322387674714115263e-04,-2.117451443591413830e-03
3.601763802151207883e-03,-1.323289712422970343e-04,-2.117451526720191129e-03
3.601763753247050250e-03,-1.324191750131276546e-04,-2.117451609905671335e-03
3.601763704309553834e-03,-1.325093787839033059e-04,-2.117451693147855748e-03
3.601763655338718634e-03,-1.325995825546239068e-04,-2.117451776446742633e-03
3.601763606334546820e-03,-1.326897863252895387e-04,-2.117451859802333292e-03
3.601763557297034922e-03,-1.327799900959000931e-04,-2.117451943214627291e-03
3.601763508226186409e-03,-1.328701938664554887e-04,-2.117452026683624630e-03
3.601763459121999546e-03,-1.329603976369558068e-04,-2.117452110209324875e-03
3.601763409984475202e-03,-1.330506014074008848e-04,-2.117452193791728460e-03
3.601763360813611207e-03,-1.331408051777907770e-04,-2.117452277430836253e-03
3.601763311609410163e-03,-1.332310089481254019e-04,-2.117452361126646518e-03
3.601763262371871204e-03,-1.333212127184047325e-04,-2.117452444879160556e-03
3.601763213100993462e-03,-1.334114164886287146e-04,-2.117452528688377935e-03
3.601763163796777804e-03,-1.335016202587973482e-04,-2.117452612554298220e-03
3.601763114459223796e-03,-1.335918240289105520e-04,-2.117452696476922278e-03
3.601763065088331439e-03,-1.336820277989683259e-04,-2.117452780456248809e-03
3.601763015684101600e-03,-1.337722315689706158e-04,-2.117452864492279981e-03
3.601762966246534279e-03,-1.338624353389173674e-04,-2.117452948585013192e-03
3.601762916775627741e-03,-1.339526391088086078e-04,-2.117453032734450177e-03
3.601762867271383287e-03,-1.340428428786441745e-04,-2.117453116940590501e-03
3.601762817733800050e-03,-1.341330466484241487e-04,-2.117453201203434165e-03
3.601762768162879332e-03,-1.342232504181484491e-04,-2.117453285522981170e-03
3.601762718558620697e-03,-1.343134541878170758e-04,-2.117453369899231080e-03
3.601762668921023279e-03,-1.344036579574299473e-04,-2.117453454332184765e-03
3.601762619250087945e-03,-1.344938617269870367e-04,-2.117453538821841355e-03
3.601762569545815130e-03,-1.345840654964882625e-04,-2.117453623368201285e-03
3.601762519808203097e-03,-1.346742692659336790e-04,-2.117453707971264556e-03
3.601762470037253583e-03,-1.347644730353231778e-04,-2.117453792631031600e-03
3.601762420232965719e-03,-1.348546768046567318e-04,-2.117453877347501116e-03
3.601762370395339505e-03,-1.349448805739343138e-04,-2.117453962120674407e-03
3.601762320524374943e-03,-1.350350843431559239e-04,-2.117454046950551037e-03
3.601762270620072464e-03,-1.351252881123214537e-04,-2.117454131837130573e-03
3.601762220682431202e-03,-1.352154918814309301e-04,-2.117454216780413883e-03
3.601762170711452892e-03,-1.353056956504842992e-04,-2.117454301780399666e-03
3.601762120707134932e-03,-1.353958994194814523e-04,-2.117454386837089222e-03
3.601762070669480356e-03,-1.354861031884224980e-04,-2.117454471950482118e-03
3.601762020598486130e-03,-1.355763069573072464e-04,-2.117454557120577920e-03
3.601761970494154422e-03,-1.356665107261357248e-04,-2.117454642347377063e-03
3.601761920356485232e-03,-1.357567144949079060e-04,-2.117454727630879979e-03
3.601761870185476826e-03,-1.358469182636237358e-04,-2.117454812971084933e-03
3.601761819981130069e-03,-1.359371220322832142e-04,-2.117454898367994529e-03
3.601761769743445397e-03,-1.360273258008862598e-04,-2.117454983821606164e-03
3.601761719472422376e-03,-1.361175295694328456e-04,-2.117455069331922006e-03
3.601761669168061439e-03,-1.362077333379229445e-04,-2.117455154898940754e-03
3.601761618830362152e-03,-1.362979371063564751e-04,-2.117455240522662843e-03
3.601761568459323649e-03,-1.363881408747334917e-04,-2.117455326203088271e-03
3.601761518054948531e-03,-1.364783446430538317e-04,-2.117455411940216605e-03
3.601761467617233762e-03,-1.365685484113176034e-04,-2.117455497734048279e-03
3.601761417146181078e-03,-1.366587521795246442e-04,-2.117455583584583294e-03
3.601761366641790477e-03,-1.367489559476749812e-04,-2.117455669491821648e-03
3.601761316104061961e-03,-1.368391597157685602e-04,-2.117455755455762041e-03
3.601761265532993795e-03,-1.369293634838053271e-04,-2.117455841476407509e-03
3.601761214928588580e-03,-1.370195672517853088e-04,-2.117455927553755016e-03
3.601761164290844582e-03,-1.371097710197083971e-04,-2.117456013687806296e-03
3.601761113619763102e-03,-1.371999747875745647e-04,-2.117456099878560483e-03
3.601761062915342405e-03,-1.372901785553838118e-04,-2.117456186126018009e-03
3.601761012177583359e-03,-1.373803823231360840e-04,-2.117456272430178442e-03
3.601760961406486397e-03,-1.374705860908313000e-04,-2.117456358791042648e-03
3.601760910602051519e-03,-1.375607898584694871e-04,-2.117456445208608894e-03
3.601760859764277425e-03,-1.376509936260505908e-04,-2.117456531682879780e-03
3.601760808893165848e-03,-1.377411973935745572e-04,-2.117456618213852705e-03
3.601760757988715055e-03,-1.378314011610413318e-04,-2.117456704801529838e-03
3.601760707050926345e-03,-1.379216049284509419e-04,-2.117456791445909443e-03
3.601760656079798853e-03,-1.380118086958032791e-04,-2.117456878146992821e-03
3.601760605075333879e-03,-1.381020124630983432e-04,-2.117456964904779106e-03
3.601760554037530555e-03,-1.381922162303360531e-04,-2.117457051719268298e-03
3.601760502966388881e-03,-1.382824199975164628e-04,-2.117457138590461262e-03
3.601760451861908425e-03,-1.383726237646394641e-04,-2.117457225518356700e-03
3.601760400724090053e-03,-1.384628275317050026e-04,-2.117457312502955477e-03
3.601760349552933331e-03,-1.385530312987131327e-04,-2.117457399544257594e-03
3.601760298348436959e-03,-1.386432350656637458e-04,-2.117457486642263052e-03
3.601760247110604406e-03,-1.387334388325567878e-04,-2.117457573796971415e-03
3.601760195839432202e-03,-1.388236425993922315e-04,-2.117457661008383119e-03
3.601760144534922083e-03,-1.389138463661700770e-04,-2.117457748276497728e-03
3.601760093197072313e-03,-1.390040501328902701e-04,-2.117457835601316112e-03
3.601760041825885928e-03,-1.390942538995528107e-04,-2.117457922982837401e-03
3.601759990421359893e-03,-1.391844576661575633e-04,-2.117458010421061163e-03
3.601759938983495942e-03,-1.392746614327045821e-04,-2.117458097915988699e-03
3.601759887512294075e-03,-1.393648651991937859e-04,-2.117458185467620008e-03
3.601759836007753426e-03,-1.394550689656251475e-04,-2.117458273075953790e-03
3.601759784469874427e-03,-1.395452727319986398e-04,-2.117458360740990479e-03
