accel_x (m/s^2),accel_y (m/s^2),accel_z (m/s^2)
-7.534048762708465616e-03,7.722101590797844986e-03,-9.801393720547288524e+00
6.494375046856590370e-04,-2.730201615709598999e-03,-9.792330628844293727e+00
1.268393697531320502e-03,-2.512636067745868760e-03,-9.785565505586749424e+00
-9.225814213070292896e-03,-4.797992672022240862e-03,-9.798857724005848979e+00
-2.799918036501999972e-03,3.960819764593536893e-03,-9.798450813200670240e+00
-6.894565570614119392e-03,6.672256259812692734e-03,-9.792927721231547977e+00
2.893312928509757243e-03,-5.224297244802268876e-03,-9.795169552556671988e+00
1.925106966193840209e-03,-3.873998520453489358e-03,-9.791835815744683202e+00
-3.922102607934432189e-03,4.316656502477422830e-05,-9.790923012721291840e+00
-8.371337045891661961e-04,4.490908771382647047e-03,-9.798593665665645602e+00
6.949024395386587012e-03,2.873310605509008832e-03,-9.796144446389714489e+00
-4.311650554824728900e-03,-3.461702008852359045e-03,-9.801505184654951464e+00
-4.546339260347168130e-04,-1.351907865563378849e-03,-9.794409340764824279e+00
2.052866978015027884e-03,-5.238264929697208395e-03,-9.790651074580527080e+00
5.747428173279341135e-03,-1.135857491132131374e-03,-9.791526783868112815e+00
-6.260952892998215488e-03,1.951899218382644428e-03,-9.794620684016761558e+00
1.204084297166294407e-03,7.214788326126113501e-04,-9.784323263082384869e+00
-5.750789025722324518e-03,1.029768944154273126e-03,-9.799115993347758291e+00
1.997264926115292912e-04,4.904605482051004398e-03,-9.796232397429950112e+00
7.037510507348050150e-03,3.438904656204954530e-03,-9.790739044207018793e+00
6.901887394006156473e-03,6.063215043053632979e-03,-9.795663916352387091e+00
6.529351808352532559e-03,4.372795565382362089e-03,-9.799484906013693930e+00
2.649086743503546205e-03,2.936816810493497916e-03,-9.787808434270715452e+00
5.235829795406246080e-03,-1.026961636743718188e-02,-9.792744672481687118e+00
7.303863807964458207e-03,-3.654394679023288163e-03,-9.791890139009797878e+00
4.888661842202947881e-03,3.820401677226446975e-03,-9.800627313371496285e+00
-7.124146556829348727e-03,5.298409206256239970e-03,-9.789553106282967931e+00
-4.166433132919997694e-03,-2.132402875315867787e-03,-9.791828225382321449e+00
6.521326007342438322e-03,-6.952487837101881119e-03,-9.806361879963828798e+00
-1.206515188760694940e-02,-2.331872690540559220e-03,-9.791055851137469901e+00
-1.632710462040818256e-03,-1.669174168867250310e-03,-9.798561725066820216e+00
-5.446657521455957988e-03,-4.241892682243354404e-03,-9.789142997208822194e+00
1.340059639336579553e-02,-4.390471883234061366e-03,-9.799718183773872937e+00
-4.180755496444322691e-03,-1.633085733001744463e-02,-9.790656407157445784e+00
2.571957540831126994e-03,1.826202342806341984e-03,-9.783887550812266909e+00
-4.916776051300517959e-03,3.310438895754878007e-03,-9.785096437814161163e+00
-2.105067096133884236e-03,-7.003636007682135676e-04,-9.798390986047886386e+00
5.235608183105392062e-03,-4.550214046925436968e-03,-9.793077201218769900e+00
-3.497091345338339870e-03,2.095389553636316498e-03,-9.801233435796667948e+00
6.504342385221485549e-03,6.181026913239640432e-04,-9.792272271487812318e+00
4.359068952547135258e-04,-2.467818594120983720e-05,-9.793307185765961265e+00
-5.082534974908064530e-03,6.948999316097706795e-04,-9.792017521666318558e+00
3.388921766248157732e-04,-6.635647952825993179e-03,-9.794664316953845429e+00
4.576713980953121840e-04,6.596486632365039168e-03,-9.796263292387518362e+00
-4.889961769331216748e-03,1.271382731511603399e-03,-9.798997419981839485e+00
-1.798694493587448245e-03,3.903275752105225208e-03,-9.796014796674425540e+00
-5.612316541759083781e-03,-7.784258723305707492e-03,-9.785520389423096432e+00
7.091638429864188450e-03,3.741654469685220478e-03,-9.789645478872261108e+00
3.915679689168538135e-04,-4.784244069230629039e-03,-9.794756656837032338e+00
1.031626319871325505e-03,4.954175591967450651e-03,-9.796329475161329015e+00
6.542718694270478232e-03,7.772943297116699339e-03,-9.795730994928538493e+00
2.449071279954013244e-04,-3.775602679743688718e-03,-9.790270164910159778e+00
6.521002192710417637e-03,8.005278862556572395e-03,-9.797841564160830075e+00
1.667888698013658775e-03,6.949389510906555387e-04,-9.784691060475772417e+00
-3.460875264178021448e-03,-2.523195578723478206e-03,-9.786906052053609528e+00
-2.651365763189052899e-03,-1.209697552961123967e-03,-9.785655872336064931e+00
9.358178633835109814e-04,1.187780896643815878e-03,-9.789610117033591408e+00
4.879488522436721890e-03,7.140154308549559285e-03,-9.797175728982413290e+00
3.213370653357437712e-03,-1.175168402912437314e-02,-9.790386551176606389e+00
-6.136324736168944673e-03,-3.506846401373038200e-03,-9.791338344780427860e+00
-2.853877204243614532e-03,-6.030854585495665394e-03,-9.790302654654079006e+00
9.278387884718476350e-03,2.705326660030426232e-04,-9.796349391668755402e+00
1.347179252401497530e-02,-3.743354209421750293e-03,-9.790950111859826777e+00
6.141559566235052330e-03,6.298941086933194759e-03,-9.788117290802903270e+00
4.706980671485529004e-03,6.828911502635887781e-03,-9.799485893094495026e+00
2.000664810427643051e-03,3.452952115167407313e-03,-9.794897715470664679e+00
-5.815720434973854595e-03,-2.813031069746281358e-03,-9.799975034741573054e+00
5.529074429930020546e-03,-2.447822526471893963e-03,-9.785648400709387573e+00
-5.957796357495642042e-03,2.896155021229412842e-03,-9.803819848737314047e+00
5.722458823653887861e-03,6.309385960223138669e-03,-9.799249426781912575e+00
1.557850059022895675e-03,8.850615612469591581e-03,-9.793396575343221500e+00
4.196708979667651204e-03,-1.052682227539900213e-03,-9.792087224275617174e+00
-3.212479073922232340e-03,-8.668450074913590375e-03,-9.797883795006663732e+00
5.127438673918449479e-03,-1.832548344058816735e-04,-9.795117936988724239e+00
8.269117027148623067e-03,-8.292580691843489532e-03,-9.797196257600905511e+00
1.982138265030685808e-03,1.745473979430164999e-03,-9.799612943035011625e+00
5.391858191335472013e-03,-6.205490571015742871e-07,-9.794376301813612073e+00
-4.246473543427669792e-03,-2.837287761238808503e-03,-9.790910372096941927e+00
-2.635899085397642658e-03,1.453026886700814772e-04,-9.790028507444137773e+00
2.949830004778908679e-03,-3.393443246704154828e-03,-9.793569830567570023e+00
5.608524483117474126e-03,5.535018147308956755e-04,-9.792256660763793974e+00
-1.051269653736433335e-03,1.241420211793642196e-02,-9.796776016028342582e+00
-1.184963795673270315e-02,-1.755481412671207895e-03,-9.787950034945858135e+00
-3.306509954862861642e-04,4.064801525820537116e-03,-9.797797729892003815e+00
7.097382490737282577e-03,-5.241991144451268103e-04,-9.792848524470322502e+00
-8.819246150802768913e-03,-2.072868403674307369e-03,-9.793649592503973267e+00
-5.606807888311317843e-03,-4.886276562360488199e-03,-9.791701014885919818e+00
2.699256558008828952e-03,4.460678367916523675e-03,-9.788541209087606276e+00
-3.460364613273772538e-03,7.652009720553132333e-03,-9.788724188995290731e+00
-1.188065773788293290e-02,1.217574685586617252e-02,-9.790225719604940480e+00
4.713502781711424380e-03,3.738140308607066156e-03,-9.787708370561400528e+00
8.149459474095423900e-03,-1.385273317338232965e-03,-9.794158235361042131e+00
-2.336201211361246203e-03,-1.619938635372953056e-03,-9.788907277039617938e+00
-4.903870188272214069e-03,-6.298905036496127777e-03,-9.794044523208592423e+00
-5.255534911519886554e-03,1.577183225885949499e-03,-9.791480676117931381e+00
3.523670892755379185e-03,-3.022704774594341549e-03,-9.798524069001198100e+00
3.542480928893887784e-03,-9.963126083479293890e-04,-9.789396545876551059e+00
-1.757175970532889224e-03,3.275720189389080134e-03,-9.796820989017767545e+00
-4.890363238638228104e-03,3.287824168285085041e-03,-9.781460510525862517e+00
5.756130642168568248e-03,-6.605453206073568645e-03,-9.796088839627786982e+00
-8.538341740245524239e-03,-2.071635824755369091e-03,-9.779789539840567869e+00
-8.486642912011606830e-04,4.327507239268987350e-05,-9.796080901945085628e+00
-6.215507613773921768e-03,4.570693448152246020e-03,-9.792067829148404456e+00
3.150347461038872400e-03,5.861101120846388360e-05,-9.799244236467462343e+00
-1.255781219445531926e-03,-1.102063080720214194e-02,-9.779045033356803529e+00
3.565434063110241780e-04,1.093499815963378625e-03,-9.802624414350063375e+00
-1.284227179423152315e-02,7.484014819739576337e-03,-9.787944848903334716e+00
-4.441535275042487844e-03,-4.733600644899921793e-03,-9.793800553576819112e+00
-4.254820880899794384e-03,-3.667461121322010496e-03,-9.791086980135972340e+00
-8.861947257770065936e-03,1.207492811179131272e-02,-9.793691815779068222e+00
7.151347624007452111e-05,1.726180918261144108e-03,-9.791477117951284725e+00
2.321369735955117371e-03,-5.883985773576684043e-03,-9.792242865323080636e+00
1.046390589930755195e-03,3.448548709502010268e-04,-9.779436270169179934e+00
-1.254066203139148810e-03,3.249355473499651158e-03,-9.788889316557577658e+00
-6.646457165778718590e-03,-1.586134421132652300e-03,-9.793104118969839789e+00
-7.119999754585256378e-04,3.920214591708334230e-03,-9.794368246132016509e+00
1.222922625093912597e-03,-4.522853255434704060e-03,-9.803502846318830066e+00
7.376067478195455496e-03,-4.849593256864554933e-03,-9.796911461491468742e+00
3.635543538047725492e-03,-3.246931856267761766e-03,-9.796433382919760291e+00
-6.515707232655830287e-03,4.994297202033972857e-03,-9.792143292109551922e+00
4.900051748058409373e-03,1.338624773739965175e-03,-9.782065378077883011e+00
-2.739021327409001290e-03,-5.261284903090156229e-03,-9.794466074455334237e+00
-2.832576001161277515e-03,3.052117979713591962e-03,-9.794859651325836580e+00
5.031439182489707770e-03,-3.669381508126029739e-03,-9.796932780898735871e+00
-1.569160001438566876e-04,7.004678727871412741e-03,-9.795734755336569677e+00
1.835094612872031124e-03,-8.606412335561473489e-03,-9.790275524841105081e+00
-8.647263480204388925e-03,9.726946860086512631e-03,-9.790553833765420322e+00
-9.519786390367131548e-03,-5.356088176526255370e-04,-9.795227276551562667e+00
-1.006571953064113146e-05,-5.746691293294365309e-03,-9.781778520040472102e+00
-7.518316679945456424e-04,3.335387570973832871e-03,-9.791448542683321321e+00
-3.300407903996429356e-03,-2.252934155794023788e-03,-9.794521891973323235e+00
-6.284038349911066738e-04,-5.279568866716164224e-03,-9.788808732320918082e+00
-5.776925779154955427e-03,4.165424525896069784e-03,-9.792214051553964183e+00
-8.716732556547961835e-03,7.770075431344333934e-04,-9.793414138425175608e+00
-7.785629304330988869e-03,-6.003407291142391980e-03,-9.789524103719525527e+00
6.202692293942802708e-04,-6.557768804135343660e-03,-9.789700110322652193e+00
-4.664777699959718493e-04,1.230488045347618957e-03,-9.792081782874863194e+00
2.950739896513480606e-03,8.334349743544590709e-04,-9.794056625988746489e+00
3.950717974671088921e-03,1.204618822430928663e-03,-9.784789403223188131e+00
8.446957111744105018e-03,-7.366193417942008305e-03,-9.790620315429752196e+00
-9.561558423980056091e-04,-1.107566049625748582e-02,-9.798048701498753843e+00
-9.749949061734267813e-03,-6.155343557207254915e-03,-9.795475408370803549e+00
7.665438628182258927e-04,1.289001209604211063e-03,-9.789457146730287107e+00
3.430692787170956833e-03,-2.160086228269592328e-03,-9.784738970850948903e+00
-4.985440026678315643e-03,1.044067933146776254e-02,-9.799036822039735029e+00
9.581237435848058426e-03,3.291228821766876977e-03,-9.804312748326236004e+00
-1.040110704707153388e-02,9.023378042682571537e-04,-9.792775005480882200e+00
-4.472358145650077809e-05,7.458519244670160260e-03,-9.789988243808236845e+00
-1.248665642674370900e-04,1.226963183767809749e-03,-9.798724950907006459e+00
4.852785800927108574e-03,-4.735990111253589492e-03,-9.791149931454265598e+00
-8.155171616559260366e-04,-6.476740589211946522e-03,-9.793649989659897415e+00
-4.144716580137209651e-03,-2.479171109164825465e-04,-9.796802611594761956e+00
-7.170598237906819494e-03,2.668029734357243998e-03,-9.793825969861366332e+00
2.679722082632323126e-03,6.026187079578181408e-03,-9.795344870113627422e+00
1.970199428132763785e-03,-1.221281756359726862e-02,-9.791928696205198790e+00
-8.933414552663409810e-04,1.029943773947988557e-03,-9.794903310635559635e+00
-2.169702548922885794e-03,4.501931110423229403e-03,-9.794195395938835702e+00
-4.431846937521886215e-03,-4.570858169799621755e-04,-9.789741162714996392e+00
6.964337117538164663e-05,-3.545084783377772802e-03,-9.794057493886592525e+00
3.557192427512143994e-03,-5.181724019448114525e-03,-9.794186277214368630e+00
2.533525843848608516e-04,6.520091821765132932e-03,-9.792948693918326342e+00
3.683460953399437035e-03,-2.384273493406563558e-03,-9.787588144184711680e+00
7.788568779768812725e-04,-5.820635044152992245e-03,-9.787548204962021714e+00
7.379582149429111428e-03,-3.095194328324636472e-03,-9.803169983422844069e+00
3.000298721617758371e-03,-1.763142957267404979e-03,-9.785934521997365465e+00
7.667767785892207894e-03,7.363881316152175692e-03,-9.786893984832742532e+00
7.643318595871390281e-04,5.949400135224472766e-03,-9.798269529391850696e+00
3.023735542390662816e-03,-4.882078982847804643e-03,-9.786369138703436832e+00
5.219672057750769298e-03,2.797231205221506305e-03,-9.795234849583286163e+00
3.931064144128647124e-03,1.575960790615509640e-03,-9.796893659690642409e+00
-1.116761301820683432e-03,-7.026096584492855278e-04,-9.795855533161878625e+00
-5.940080938491198309e-03,-7.920881866873698968e-03,-9.794305451425831421e+00
5.795264074431178726e-03,-2.901687539144801303e-03,-9.794336785029241099e+00
-5.715897686436171091e-03,3.966262592952915847e-03,-9.795141491553835067e+00
-4.804645378992037480e-04,4.079921067376209021e-03,-9.783507557520243481e+00
-7.149858301161719082e-03,4.121945650301321595e-03,-9.791409669813376127e+00
-8.913622876552848269e-04,-2.630886845577875329e-03,-9.786477419171536241e+00
1.129092796658017622e-02,-5.146268633364678262e-03,-9.792564267838644199e+00
4.679900907735628710e-04,5.581930364392184533e-03,-9.793714862355514583e+00
5.402016271816628169e-03,7.736940616375122259e-03,-9.795801442736793874e+00
1.352321128226274946e-03,5.423970112026589574e-03,-9.790906413321632584e+00
-1.901362360380269654e-03,-3.009360264494687423e-03,-9.786932964489084341e+00
1.201582111980455808e-03,-8.421130907425427095e-03,-9.801857211168471196e+00
2.698310042584264553e-04,3.275555042938535196e-04,-9.789420897915288577e+00
-8.111108166003081843e-04,6.846593444896119721e-03,-9.787252603207205581e+00
2.756521281583753768e-03,-2.716095032630064417e-03,-9.798588610986570302e+00
4.785358538084217780e-03,7.932013865845457742e-03,-9.787980374914932113e+00
7.183757433702502547e-03,-1.402524779454902143e-03,-9.793004735267672345e+00
1.151564759213134467e-04,2.542302132716380177e-03,-9.795832953735397197e+00
-2.298998607001652948e-03,-6.761540435096076267e-03,-9.787107561183299609e+00
-5.161371978094662222e-03,-1.755747302995963165e-03,-9.798082586287502949e+00
2.198434135763155904e-03,4.437328136421093755e-04,-9.801655339379442111e+00
-7.003086294562502374e-03,-3.118524812722844007e-03,-9.790332531465265831e+00
-4.517512761600643231e-03,-7.126109010146887933e-03,-9.795889954035054359e+00
4.398993087442408696e-03,1.107188912010082134e-02,-9.798655857434420469e+00
-8.609987617583223646e-03,4.840154890110707521e-03,-9.787214551259479478e+00
-6.881315033764794607e-03,-4.368787352062076385e-03,-9.796860281513559698e+00
-2.562865129454776000e-03,-5.873925322183689776e-03,-9.789495689031737058e+00
1.510128491369491007e-03,6.142882490126950860e-03,-9.796286249371966903e+00
-5.857410881975383746e-03,-3.706770080466637550e-03,-9.798944121984574096e+00
3.302497057445428780e-03,-4.996825270875529567e-04,-9.800813845269185975e+00
-2.294064209685223350e-03,-4.715930390707423242e-04,-9.796774785290605081e+00
-3.105527769789999826e-03,-1.533865076468794546e-03,-9.796018617293762887e+00
4.918667097158241353e-03,7.878121888608269731e-04,-9.801089894083341747e+00
5.122492366054731856e-03,5.785281714060739114e-03,-9.796243957688478332e+00
-4.903562577166044106e-04,3.083387744774494614e-03,-9.787559900762312637e+00
-1.020628958678606452e-02,4.245075054171388793e-04,-9.797333250768611279e+00
3.913582103642984471e-03,5.094021571610582444e-03,-9.798657167128792977e+00
-6.137039687333959229e-03,-1.598682899251364703e-03,-9.805622104493398439e+00
-4.899191763036922498e-03,-3.582675770634396149e-03,-9.789614361449983093e+00
-3.743921120434691181e-03,5.663248090859538710e-03,-9.786702814365430214e+00
5.236212212830940009e-04,1.320730103855046605e-02,-9.795354569253966304e+00
8.131148027349975951e-03,2.616071399480153145e-03,-9.793779743690828710e+00
3.127644211241206555e-03,-1.850569164436959967e-03,-9.798886851474673421e+00
4.575095536650143971e-03,-1.609045770459484543e-03,-9.795361075906559023e+00
8.031084743061191536e-03,7.039334259705690502e-03,-9.795292765429216786e+00
-2.233250733873204386e-03,-2.043830066202857385e-03,-9.791611392423606119e+00
9.108585612498088478e-04,-3.332226444754847298e-03,-9.795127790955902469e+00
3.552748713765128703e-04,5.579921713416112483e-03,-9.796337627354660071e+00
8.460429137720088802e-04,-5.576561598818387949e-03,-9.783802611878984479e+00
-3.368178113971155314e-03,-7.338223459535819391e-04,-9.796109063690920493e+00
5.261010311495916726e-03,-2.185093699405588497e-04,-9.798679680491689581e+00
1.768021900530926784e-03,1.119139513819814545e-02,-9.796267611096981298e+00
1.963796581037045592e-03,-3.445134105787055635e-03,-9.787855230558587749e+00
-4.787428492008563054e-03,-1.211363592929847778e-02,-9.801353611254647547e+00
-1.482282997040501019e-04,-7.424043915720127725e-04,-9.788803335356504931e+00
-1.395446546400232787e-04,-4.271725331580501208e-04,-9.789403590342550032e+00
-5.098889598257280199e-03,2.059386920436147728e-03,-9.791892723065314996e+00
8.149877940730560974e-04,4.029468133948945277e-03,-9.788282290784353634e+00
-3.775506205866752986e-03,8.629274250871777491e-03,-9.791111595697536529e+00
9.167451944019391593e-04,-7.259624742107248594e-04,-9.794427946292708853e+00
-8.375295984228585400e-03,4.018542476346222830e-03,-9.797616447477969004e+00
-6.215822218429970479e-03,-7.307953656396900220e-03,-9.798793609414634176e+00
-6.443497328130375588e-03,2.731704794819454774e-03,-9.783203986855275147e+00
1.266093403669544008e-03,2.177528061354618190e-03,-9.788356012605790468e+00
-1.172233312851941357e-03,3.226799964818036909e-03,-9.798724238592317448e+00
-3.703652232812179243e-03,1.084679810843968643e-03,-9.784151066017475529e+00
-2.728529677274226222e-03,5.096223657060612068e-03,-9.788073640863355962e+00
-4.078981682250708805e-03,7.492506018501699644e-03,-9.793938335980650223e+00
1.451193824549178646e-03,-4.861977128020426690e-03,-9.788879236540898532e+00
-3.674949464510257353e-03,2.307790758842576118e-03,-9.791955908025958166e+00
9.763050344589548415e-03,-1.665258023270369328e-03,-9.790693517624381670e+00
-3.326779736089903201e-03,7.823506865745340905e-03,-9.787278882618650755e+00
1.871168600406520818e-03,1.611630034317394186e-05,-9.789196859181025445e+00
-3.372160397647731497e-03,8.320603747180507770e-03,-9.786984723317960544e+00
6.299530341194513848e-03,-3.377011813164213123e-03,-9.794867449268719994e+00
5.110153848268966445e-03,5.880920391774053721e-03,-9.795166911576369984e+00
8.416600938953300304e-03,1.802199333260733451e-03,-9.789950887042644823e+00
2.007497910065867731e-03,3.498083663528875429e-03,-9.791074244544518024e+00
1.315116557774167333e-02,9.362398705899523804e-03,-9.789095919145900382e+00
-7.545779069594745619e-03,5.579330757455179708e-03,-9.795525275779663588e+00
-5.349913830089403875e-03,9.762929828001741875e-03,-9.786511089783729744e+00
7.177318474945931781e-03,5.152510491493795218e-03,-9.792601386744117065e+00
-3.048719708451170423e-04,1.561661747857495544e-03,-9.789751216523429278e+00
-7.392876023410570622e-04,-8.834454029748422740e-03,-9.795974379822114386e+00
-2.723836950917559851e-03,-6.152049177031850696e-03,-9.793924179650472794e+00
5.179217603046664536e-03,-1.581760377973168369e-03,-9.796601759475786153e+00
-2.296161647676925235e-03,2.004245721807414171e-03,-9.797938060250116266e+00
-6.556729239807675309e-03,-7.073353532398424931e-03,-9.799595452476518531e+00
-1.819474386674074448e-03,1.194883756097899668e-03,-9.784670222092724856e+00
4.379787348382613126e-03,-9.341730610223241858e-04,-9.780360125922410219e+00
1.035491249932135073e-02,4.489681427554849521e-04,-9.793010818105681636e+00
1.203061333179342249e-03,5.318293595652769275e-03,-9.790891303582636596e+00
-1.160495012030669099e-03,-4.097652512356258353e-03,-9.795215342963272676e+00
-6.193059807043145744e-03,-2.604969183965122597e-03,-9.794627098559017142e+00
-5.156014166658474777e-03,-2.312403841779697364e-03,-9.792739632379687365e+00
6.021993021365593113e-03,-1.077931358811292512e-02,-9.801914151384044871e+00
-6.007071361138373658e-03,6.489305849864797577e-04,-9.795640467649166183e+00
-5.302601387184977325e-03,6.848001905706348723e-03,-9.788473075661531908e+00
-3.982160069271611230e-03,4.515239662868934106e-03,-9.791015489267786975e+00
-9.132401082598912145e-03,-6.808260239287314795e-03,-9.789811548440003008e+00
-1.589508735198388390e-03,-4.609626675235125974e-03,-9.793036225477230516e+00
4.338561315352447607e-03,-9.066656400717366601e-03,-9.791059003421946016e+00
1.059365474427250396e-02,-9.159271533761486695e-04,-9.798265558863919367e+00
-5.080766610673718639e-03,-4.507070059490654763e-03,-9.790098225726845627e+00
-2.926321274802628093e-03,3.800608056399712616e-03,-9.801447622586362485e+00
5.229537787654513692e-04,1.188874012327544938e-03,-9.795095134698224015e+00
-1.464738817860953050e-04,-9.461888306417127678e-03,-9.785181772558187774e+00
2.013605122283887786e-03,4.108941448066322612e-04,-9.782414042128284137e+00
-4.063159315910069153e-03,-1.171496930202561848e-02,-9.790519060293847886e+00
2.911345062272337973e-03,-2.059330060276835014e-03,-9.785028752327976420e+00
6.676048474825104113e-03,-1.259915794582949691e-03,-9.797524091013070091e+00
4.173531354471494113e-03,5.442727282599832926e-03,-9.796294144848587848e+00
-9.231764338948382975e-04,5.265137504049948076e-03,-9.793069955339742449e+00
1.765073852792301218e-03,-2.629189350794035838e-03,-9.789739861450978964e+00
7.477812567346595399e-03,7.300100479019068674e-03,-9.793078863474409701e+00
3.258782408408253395e-03,1.138221069645803689e-03,-9.793565648195873052e+00
4.765374848703337815e-03,-7.091875635190274599e-04,-9.794762430178138857e+00
2.722434405777681993e-03,-1.625019202118603058e-04,-9.788362616477888523e+00
3.248247445341478001e-05,-3.530786003516173631e-03,-9.789471796821541005e+00
4.217988737715771923e-03,1.267462671882535518e-03,-9.793979323963149852e+00
-8.605195455534259130e-03,3.234166275619533831e-03,-9.795882531402824611e+00
1.432432234271029201e-03,2.052599254096824748e-03,-9.791372590459094027e+00
1.548507952874061304e-03,1.426847795979996726e-03,-9.790334910506860666e+00
2.312970340793208453e-03,6.399900421400087601e-03,-9.788555814553699719e+00
4.915278019420205383e-03,-2.148645216824571127e-03,-9.798264118700039660e+00
-2.488149875921179168e-03,1.738666061208335315e-03,-9.791293197796456127e+00
-1.085774038304167244e-02,-4.215613570464692844e-03,-9.797835697315376180e+00
-3.295426400471957850e-03,4.118975297298224647e-03,-9.787545548185208943e+00
-3.074486289612883127e-04,8.972701812422623560e-03,-9.790491535813226065e+00
-1.172647987833492188e-02,-1.908109517049359554e-03,-9.799071268295861614e+00
-6.755036526470884102e-03,8.318993507387302533e-03,-9.796342358687709861e+00
1.183837587423783961e-03,-2.799607937493370224e-03,-9.792187017479324851e+00
2.311616141237763516e-03,8.511081292945601355e-06,-9.796432817546115501e+00
-1.373680771417336429e-03,-4.185283366651041705e-03,-9.800207062649251455e+00
4.047878589714209302e-03,-1.589266515337490766e-03,-9.795764748454887538e+00
7.951603263439398781e-04,-1.123335994104475866e-03,-9.791676380401160174e+00
7.673289154495620094e-03,2.628233173839482958e-03,-9.797972185517595634e+00
-9.073508886493491122e-04,1.331250521660664069e-03,-9.786675203749487295e+00
6.467777272570887160e-04,7.236791657719510162e-03,-9.805708584686177787e+00
3.926174317831083657e-03,6.874523164731022665e-03,-9.795949184298949675e+00
1.089600926403121867e-02,-5.946898876277655413e-03,-9.793700265415795414e+00
-1.027417695139018136e-02,2.597962558117244362e-03,-9.791487530865470745e+00
8.415603854113589549e-03,-2.221533154554672373e-03,-9.795004174759322169e+00
-3.515791203477781055e-04,-4.383765106551151119e-03,-9.789701588977562707e+00
-1.995157526350739476e-03,-5.313344049575003183e-03,-9.794469162769114945e+00
-4.577168012367036597e-03,3.732819660525102997e-03,-9.797169673699022141e+00
4.395947284012839164e-03,1.956904923976495337e-03,-9.795119767252385756e+00
1.279254599008683001e-03,7.416051265022095308e-03,-9.788775365064251943e+00
8.821341720576861972e-03,5.193167229219823947e-03,-9.795630478205840319e+00
1.567463604029947647e-03,-1.684777482799233413e-04,-9.798931400800729108e+00
-2.953447786423700570e-03,2.669725302711672098e-03,-9.781646892647914981e+00
-1.951001166698908100e-03,-2.276222341092073477e-03,-9.787345610038514110e+00
-1.247101127881241993e-02,-4.733406990708196801e-03,-9.795057901840221959e+00
-6.260695413620889424e-03,-2.267602406647754171e-03,-9.795540999579777974e+00
7.134576691622115593e-03,4.245894080047453965e-03,-9.787453805942410767e+00
-2.546781763216966320e-03,-5.766611593861851667e-03,-9.796036011200582649e+00
2.125270061168861493e-03,-4.955894381226331720e-05,-9.799254786298160269e+00
-1.750720408038223749e-03,-3.562873560219197676e-03,-9.800846591366980221e+00
-5.017488510830499064e-03,7.166610951634404432e-03,-9.785534991082840861e+00
5.760425301984078809e-03,2.844296048169081201e-03,-9.790548087633800023e+00
5.760050994258957783e-04,5.195805443111745602e-03,-9.794929596750082013e+00
3.571134007973019060e-03,5.877364835077984566e-03,-9.804961213244762774e+00
-1.012894073721312118e-03,-1.787439691178903216e-03,-9.797143416956089368e+00
-8.928459421527522658e-03,3.230984723375403961e-03,-9.800389684964628145e+00
-2.937197768728518239e-03,-4.965970061327224655e-03,-9.794639416811785182e+00
-1.011161406984648764e-02,4.654499051412899421e-03,-9.785544752834070437e+00
5.262676753437861565e-03,1.176727001174022249e-04,-9.800078382461318682e+00
-1.546111489060190535e-03,-2.680928715437037261e-03,-9.792849300032989035e+00
-1.178066412076155325e-02,3.454429620004599057e-03,-9.788436831091294366e+00
6.428563569984772040e-03,1.718213136904037487e-03,-9.792106263004095368e+00
5.077495533476306111e-03,-6.866860547515471133e-03,-9.777516489473972783e+00
8.335377156785223410e-03,3.483316523426127718e-03,-9.797710035348698554e+00
5.730007119149257803e-03,7.946176349537033973e-03,-9.790762102366709740e+00
-3.815883092418964357e-03,-2.512497801568635072e-03,-9.794876989547645962e+00
9.182662843079052173e-03,-5.486724461053117674e-03,-9.794050678452515868e+00
1.172638696244483573e-02,-5.940245552557328265e-03,-9.794469097411978353e+00
1.639725932640145314e-03,1.120614023152900415e-02,-9.802037815026775291e+00
-1.795237213031137527e-03,-1.152572158814340079e-03,-9.790754044396731359e+00
-1.319624760577692226e-04,3.020713727588187573e-03,-9.802206434912747568e+00
3.481055696421769471e-03,-1.862442247634911669e-03,-9.800024749606578212e+00
1.990897292337469055e-03,-7.892619191002441317e-03,-9.800102889981074483e+00
2.103800812557947431e-03,5.174451671420289209e-03,-9.792756017576822458e+00
1.869301546289880815e-03,-4.947815385431308770e-03,-9.799846261680029258e+00
3.000021400730803860e-03,-3.424010310231710447e-03,-9.794388932037035644e+00
-2.894865377853109525e-04,1.885948476036865230e-03,-9.791116304021461048e+00
3.302536278484596941e-03,1.251316848278456306e-03,-9.797218729353845745e+00
2.936419026174094584e-03,-2.644111665764665824e-03,-9.797063476906103574e+00
-9.431040313620654529e-04,3.173990555352018076e-03,-9.788840676806836782e+00
-1.190857821329320988e-03,-1.976922238877093334e-03,-9.786227472928912263e+00
-1.975319160023753049e-03,-4.223776988704678291e-03,-9.797881283663187446e+00
3.916097447153252253e-03,6.748425993186092132e-03,-9.792328202228416600e+00
1.792355695727261967e-04,-2.454948095808029678e-03,-9.794974775315946403e+00
-5.230168805930535299e-03,-4.189929007163141830e-03,-9.794394539532424560e+00
2.706376424495886279e-03,-5.594758566331281373e-03,-9.780627316748896405e+00
1.035974789242214388e-02,-1.301231751091936825e-03,-9.793393175930324546e+00
3.404767435680773960e-03,6.297973353993738081e-03,-9.792084865576269337e+00
-2.350506524575803839e-03,-8.605893504747628986e-03,-9.790926026446824082e+00
-1.353899414893082334e-03,-4.007157150248221757e-03,-9.803621150214041791e+00
1.823992431667130184e-03,6.781426439624430730e-03,-9.794327875809068829e+00
4.557689395629775653e-03,3.002785022623012407e-03,-9.802347571824432393e+00
-1.207619679817328135e-03,-3.010494758869387529e-04,-9.793819130522232186e+00
-3.082575377210669109e-03,4.138680368627897788e-03,-9.798682312754699808e+00
5.033211234460461571e-03,7.603944986373006344e-03,-9.803011868937351991e+00
-1.845513052245248073e-03,7.320342784267546386e-03,-9.795762960106976891e+00
2.952322681368693517e-03,-1.780890887175145014e-03,-9.797338747339235709e+00
4.371866298418238331e-03,3.000069099139722646e-03,-9.785874007760382298e+00
3.125099066565186195e-03,5.522553352743742126e-04,-9.789897119023924787e+00
-4.063954416029458110e-03,3.534454651796688912e-03,-9.786849279173988947e+00
1.789291187031018205e-03,-1.093538172913240385e-03,-9.787621141843077410e+00
-9.307019683426202492e-03,-5.273305993056057357e-03,-9.796120796783956308e+00
5.251537796775810609e-04,-4.977570953225665673e-03,-9.788632429634711585e+00
1.263066360514762156e-02,1.457933057260229863e-02,-9.782136799512473502e+00
7.167270374374554685e-03,6.789924166006635871e-04,-9.793103537738016229e+00
-3.852609372047280899e-03,1.697205832062814940e-04,-9.792732119878884589e+00
-2.576220897608761783e-03,3.518770084889088438e-03,-9.796010484685515607e+00
7.192570330338865330e-03,-1.512903601841045437e-03,-9.788660147581335735e+00
9.795853645862920636e-03,3.524125676245722094e-03,-9.798711222531212073e+00
-1.137221489288719675e-02,2.023483149911861970e-03,-9.792658593723372107e+00
1.189147394184872884e-02,1.060324965692842607e-03,-9.794725888101353917e+00
-7.411659302328249370e-03,-6.555566485277460227e-03,-9.788208743855614458e+00
5.787016695292845729e-03,8.561868637801882094e-04,-9.794057348255398310e+00
-1.205802951599275856e-02,8.414964766355370260e-03,-9.791711748093808509e+00
2.308433508768933592e-03,9.464689420232335129e-03,-9.797239605264847384e+00
-2.689737301858905263e-03,6.484472015755685624e-03,-9.805520900639081106e+00
2.457349886218140270e-03,-4.237211488146567714e-03,-9.796332012446907100e+00
1.967103277630833248e-03,2.461559677476002263e-03,-9.791623965682747510e+00
2.845110417065222289e-04,6.045906613157975111e-03,-9.802690583861977558e+00
-4.281925529664108157e-04,-3.190241848798481931e-03,-9.782267311447874647e+00
1.552898044909993515e-03,9.628388468595051528e-03,-9.793337565942934475e+00
3.781424517186126634e-03,-1.188385940829841904e-03,-9.789775991291008950e+00
4.651546764441617972e-03,-8.226733043452693663e-04,-9.797631786435982093e+00
7.789419395894781918e-03,-1.284388080607975179e-03,-9.800402202629596715e+00
-3.337895501276740614e-03,9.194238191754191061e-03,-9.789998269455837843e+00
-3.278198464699209197e-03,-5.247760336638420883e-03,-9.796979453854930853e+00
7.245470750237645178e-04,-2.326224187541352673e-03,-9.797977337683185795e+00
6.752134415841523456e-03,-3.338356386066452467e-03,-9.798623415385439017e+00
7.634579332235098001e-04,-3.445666497490218298e-03,-9.792470891057067917e+00
-2.195217701306261503e-03,4.542950079275431976e-05,-9.791236435070910460e+00
2.422953062698384070e-03,1.992270271045172830e-03,-9.789826537489496161e+00
3.613643881917752518e-03,1.373783348035012217e-02,-9.799310319039062023e+00
-4.292636127387702664e-03,-5.067333223801409083e-03,-9.790552977968294712e+00
-3.784401266234256817e-04,2.836293086258227271e-03,-9.800043574407270697e+00
-5.591488422038689947e-03,3.496824874802718485e-03,-9.795250413176340487e+00
7.990332239338884812e-03,-8.768624180359046311e-03,-9.796728728747991610e+00
-8.728593088555137817e-04,-1.090706696615850171e-03,-9.792483180400614273e+00
1.098879223512821794e-02,4.420969054243023555e-03,-9.781500922697887290e+00
-6.941131241027383939e-04,-3.139380391511128413e-03,-9.789441771046353935e+00
1.105331597142767287e-03,6.704196351982132616e-03,-9.800943999333464163e+00
4.015804561698661096e-03,1.390056680321799694e-02,-9.792418899522180809e+00
-3.115431323256951691e-03,3.363146780978232622e-03,-9.792105012584217505e+00
-8.815777735832726683e-04,5.170916601804385416e-04,-9.798427409234738761e+00
-3.750800549441349503e-03,6.728397973735968270e-03,-9.795668472190326881e+00
-8.401003622124886966e-03,-4.030649786677863340e-03,-9.797084628564997288e+00
-4.320425450672081384e-03,5.816049807723246146e-03,-9.792357528835173852e+00
-2.908753518811099583e-03,-6.082419389708689297e-03,-9.783112252598465730e+00
2.154111734616594338e-03,2.043539082750592435e-03,-9.797428853094709567e+00
5.946625709741640980e-03,-6.606658041856658392e-03,-9.807783091671547382e+00
-1.116791914516772517e-02,3.506884387545209942e-03,-9.800686196892609559e+00
7.110642200599676110e-04,1.152258979579446610e-03,-9.786169313098458389e+00
8.684855805262455680e-03,1.892641640530821120e-03,-9.791629368939331002e+00
-5.315662004191709124e-03,-1.461307065654819052e-03,-9.796067053211430675e+00
-1.481694265690426454e-03,6.255569434801085647e-03,-9.789726661069328983e+00
6.586728700760585004e-03,4.262535254485905027e-03,-9.797137919803653006e+00
-3.214607769522855561e-03,6.977165559496788759e-03,-9.797948781312879163e+00
-1.394875840806952772e-03,-8.437662307375515952e-03,-9.793324942113349252e+00
-3.258107097010297685e-04,9.594607526889509241e-03,-9.803634315902934659e+00
9.355912574804401208e-03,4.276105965448437005e-03,-9.791120269489592687e+00
-8.250761515102683283e-03,2.400495327658452773e-03,-9.799469909449637584e+00
7.690684320869920626e-03,-2.079670912659927276e-03,-9.792624188182976752e+00
-5.529592252053637351e-03,-6.260738734116017175e-03,-9.802000031478279141e+00
1.263321960785557642e-03,-6.006734846953707373e-03,-9.795386774257455187e+00
1.382250825770611410e-04,6.042639212777759644e-03,-9.783891815127411462e+00
8.051417221919871317e-03,-1.281433770488456898e-03,-9.795978871896899420e+00
-4.698624047984981643e-03,7.682075634699397221e-03,-9.788729438346248202e+00
-4.405907806885418429e-04,-6.276264535744005731e-03,-9.798010208386083164e+00
-6.772027314181926910e-03,-3.892201647017871219e-03,-9.790507622359960749e+00
-1.524076659917314881e-03,-7.783955861928430926e-03,-9.793935034242391424e+00
2.359597183480380798e-03,4.143172517066835182e-03,-9.799173478201501197e+00
7.038972731152502368e-03,1.057647648095428640e-02,-9.791182895520933016e+00
3.626886366258504600e-03,-8.062024024252281273e-04,-9.803962817283986553e+00
1.292040161348841781e-03,-7.099103504670057317e-03,-9.784596714228202430e+00
9.254003449281062235e-03,3.965357884775652132e-03,-9.789670127756680884e+00
7.686775771447654747e-03,2.897770047627230752e-03,-9.800476882259312461e+00
4.209419344911964275e-03,-4.267170502331816585e-03,-9.801933916953942116e+00
2.480080040300374107e-03,4.845561308982482794e-03,-9.795142303943356055e+00
4.777718403720105332e-03,7.069247843354079137e-03,-9.792493261196458576e+00
-1.581265326423560592e-03,8.747543882956128336e-04,-9.798691867559510271e+00
-2.902915829741226951e-03,6.031398422073812847e-03,-9.786274983963563656e+00
2.855088928361670508e-04,-7.765472219051793891e-03,-9.795335563469325990e+00
-3.341747441448386473e-03,-5.668974537324117727e-03,-9.794121889112533452e+00
-7.644717349641918375e-03,9.953587715705293493e-03,-9.787102585965556045e+00
5.455138791860303892e-03,-7.563383580053877672e-04,-9.793529631817502690e+00
-3.964336622791103139e-03,-4.036868657150922968e-03,-9.793323690148062255e+00
8.741889838194264947e-03,-3.058414455311633633e-03,-9.790911424315845935e+00
-2.608863042514217301e-03,-3.029005062654079820e-03,-9.787567621924420536e+00
3.414209356363783615e-03,1.784753395720659183e-03,-9.796140646700795429e+00
-3.689072759737260787e-03,9.677791398754484117e-03,-9.797093413187162980e+00
-1.108514196873528271e-02,-3.481080445307642435e-03,-9.803625764710490742e+00
1.542154779948377158e-03,5.680443611882766107e-03,-9.795983296674226182e+00
4.495930106852694640e-03,4.438239501928353120e-03,-9.790415062291044634e+00
1.897269326845477588e-03,1.024530567167870020e-03,-9.796285510149711939e+00
-7.131032474983224449e-03,7.761909692634787845e-04,-9.786251011483928508e+00
-7.346720328163667407e-03,6.449794035514352757e-03,-9.782034377310599993e+00
2.925943282920792014e-04,-1.981030531912703497e-03,-9.794614483664510374e+00
-1.862018251884165875e-03,-2.535232275123515226e-03,-9.793782262831252083e+00
2.274635189087062959e-03,4.958660707147130066e-03,-9.802204980090380104e+00
8.000910843356892968e-03,-3.828124290509018774e-03,-9.797993153045082337e+00
8.504805225047706863e-03,6.862063030498857623e-03,-9.801503517942718346e+00
-2.354791146735601710e-03,4.346193822586768597e-03,-9.790134017338834482e+00
-1.080087245515586221e-02,-2.415952914520912414e-03,-9.799774379355113751e+00
4.906729811827046858e-03,-7.311496206084292654e-03,-9.805684742185182046e+00
3.303763833646349794e-03,3.051116484246321303e-04,-9.795436079607448221e+00
-5.117008521061723429e-03,2.747951300160253636e-03,-9.789686189474130273e+00
-8.151892452188013588e-03,-6.685354350932727445e-03,-9.792593978497990292e+00
-1.633055099592273457e-03,-1.773393398519997879e-03,-9.798153443726175027e+00
2.001337885163677333e-03,1.224825308999056075e-03,-9.787789599136011987e+00
-1.009085819583081800e-02,7.972986948266896912e-03,-9.793575575037500869e+00
1.590915924338342016e-03,9.464174301027430958e-04,-9.795100956264747083e+00
2.043389564363067186e-03,9.117268407509936806e-03,-9.795994790325202928e+00
-3.243533267992215925e-03,-8.607746253524490784e-03,-9.789245196877809363e+00
-7.336518170080689322e-03,-1.824485255936445687e-03,-9.788628432779962196e+00
-3.268849730073720983e-03,-6.014299240052653830e-03,-9.802874307870025561e+00
1.094192377560922885e-02,1.280974061697512812e-03,-9.799401020185285915e+00
1.412842042889087338e-03,-8.028262021181375649e-03,-9.796773249822546603e+00
-2.539795337627752327e-04,-1.167358008559964870e-03,-9.802740334064495187e+00
2.299084557376102587e-03,7.814715628644018641e-03,-9.785760215000589568e+00
7.614932203667095813e-03,1.328510220781636440e-03,-9.796522876384953449e+00
3.259684943839808932e-03,-5.911558846964552229e-03,-9.788688298523357645e+00
-1.358794571240025959e-03,1.906639172602700915e-03,-9.796068600964344952e+00
3.382442509090525639e-03,9.365068543958425876e-03,-9.792510339803637720e+00
1.149074358111119333e-02,3.726526781446549963e-05,-9.788730473429319900e+00
4.990267531051332736e-03,8.866911934867551318e-03,-9.793676166558851648e+00
-7.701275287182669620e-03,1.414246390418437459e-03,-9.798182429673966354e+00
8.161004586160005431e-03,-4.638201430655650680e-03,-9.798185336288630864e+00
-1.004467285557816315e-02,-9.254348808621221112e-04,-9.796776225759284529e+00
-1.338148492105716188e-02,-1.091892782769936883e-03,-9.792136074347220998e+00
8.419000007264311816e-03,5.123710543947107045e-03,-9.790305074419835663e+00
2.621010828761426679e-03,-5.055842674764885088e-03,-9.790408490221281568e+00
-8.890969780283013851e-03,-4.337437448274822187e-03,-9.791899823604532926e+00
2.568249705015501587e-03,5.685736433443411850e-04,-9.798846604704984031e+00
-1.258249232535071623e-03,-9.406656984343950969e-04,-9.799971474832714691e+00
-6.723986153738776639e-04,-1.019844060175636481e-02,-9.785608933738378923e+00
2.477640377027043295e-04,9.218105744565373641e-03,-9.796748927799674433e+00
-1.029298742808243058e-02,-2.466640417796343073e-03,-9.788451209086376892e+00
-2.484404626354559751e-03,-1.204110303364254063e-03,-9.798222642572968155e+00
1.170662946574016144e-06,1.689238646008090362e-03,-9.788463382966705595e+00
-1.155293029336118549e-03,-9.023939224979019924e-04,-9.791646579340081757e+00
-5.970565559213198911e-03,3.480992246309394349e-03,-9.791995105672709698e+00
-4.779788483227652429e-03,4.914408299555366941e-03,-9.798547256798750382e+00
5.726214110412563077e-03,5.628331790967985859e-03,-9.795747806222500742e+00
1.945455973706992220e-03,-6.911040303585841383e-04,-9.793254205629654763e+00
-2.314016140540822372e-03,2.450002567427588592e-03,-9.786764113438229273e+00
-1.039370854875325267e-02,-2.340629190949209890e-03,-9.787770610449806341e+00
-5.875129799206588264e-04,-2.402453567863493782e-03,-9.802189790986583162e+00
1.691167660294358400e-03,1.339385594155919788e-03,-9.797745211358124706e+00
1.038048978722987603e-03,1.342697066242857715e-02,-9.792330547473044433e+00
-4.701766097335195911e-03,2.223669797326227777e-03,-9.797490917772474717e+00
-1.393782571186293669e-03,-2.104782382686370360e-03,-9.796360678421098811e+00
-3.674351021666112118e-04,-2.863619199492664549e-04,-9.791317826757497400e+00
-1.906609319489016054e-03,-3.015467441929552388e-03,-9.797365281850186847e+00
-3.780390626507480669e-03,-4.161471346342690558e-03,-9.798458906430125737e+00
1.243297362862539127e-02,-1.224202235651396763e-02,-9.795085811964712619e+00
3.756643341057549872e-03,-5.310823268501631408e-04,-9.792914915868177417e+00
6.771135015859289751e-03,1.168295640327277497e-03,-9.789957299828945025e+00
1.481725403473139807e-03,2.325497517218034181e-03,-9.800074024412449347e+00
-3.357657117035669787e-03,-3.379491875632268608e-03,-9.796583954852284393e+00
6.917285060239199493e-03,2.771193955035726014e-05,-9.786209301329565236e+00
7.885178282416414539e-03,-2.651678143641727613e-03,-9.791986766884704707e+00
-1.719665287749413485e-03,1.979156206705198133e-04,-9.802188517188184846e+00
-3.166572368882823035e-03,-6.870011124301164500e-03,-9.800378898302311015e+00
-6.128368417839522020e-03,5.619329500592093116e-03,-9.803649170420992931e+00
-6.417546646101503563e-04,4.197123599099831896e-03,-9.796332337722558847e+00
1.906503389686628165e-03,5.303824672238105628e-04,-9.798293186639176255e+00
-1.128041731333821176e-03,2.029177311101459328e-03,-9.792583123817390600e+00
-5.968064306542611962e-03,-8.438062075399129945e-04,-9.788374257024868186e+00
3.860288434174357405e-03,-2.952850714708936050e-03,-9.785966210444039248e+00
1.698457202405194173e-03,1.545118088799628513e-03,-9.793909823832439798e+00
4.779557451204671823e-06,3.846391429094745632e-03,-9.788995580355834392e+00
4.939718146338280963e-03,-4.172567324003617628e-03,-9.795124160651518253e+00
1.760083598348069185e-03,-1.399077335182833835e-03,-9.788065535113194215e+00
4.654837700339031770e-03,5.276216143310977474e-04,-9.787884276729549526e+00
4.654101642056180689e-03,3.325056926900915241e-03,-9.791283391990807772e+00
6.085277568163233522e-03,-7.519403548753668398e-03,-9.795480609688519635e+00
1.948038583680759567e-03,-4.017868415495520545e-04,-9.803658729890960544e+00
-4.909140951465707642e-03,3.754386598089433629e-03,-9.782094149701444863e+00
-9.438194542135238188e-04,1.673023769234220637e-03,-9.796369344092285658e+00
2.598668062426281317e-03,4.441000002435114245e-03,-9.786027786224099856e+00
3.306514536481179340e-03,2.660970239662034491e-03,-9.789379979195205195e+00
-1.485659855186334142e-03,-8.766141252468259704e-03,-9.798167974357536281e+00
1.111731335545641797e-02,-1.839499678679125893e-04,-9.792549239345891721e+00
4.943998641483865822e-03,-5.951054647137026150e-03,-9.798419878060588672e+00
-3.711359889385860002e-04,-1.901272151016168829e-03,-9.790712090183077976e+00
-9.435222486266259950e-03,-3.519536491868112838e-03,-9.789313971164052219e+00
-2.260171623235919958e-03,-7.426225156312860932e-03,-9.793281274332988673e+00
-2.030097813063812262e-03,-6.774837128362010824e-03,-9.792793309584862271e+00
-2.677462398839379303e-03,-7.436355843448195363e-03,-9.793314008582299834e+00
5.740036643252829918e-03,7.078321198724935861e-04,-9.795728226610785683e+00
-2.568966301746842575e-03,-5.982157452010276530e-03,-9.797695730554282889e+00
-6.099496195318542847e-03,-5.044453516504527474e-03,-9.794836797884201474e+00
-2.045223461648731922e-04,6.800003072412317238e-03,-9.806245347177613425e+00
-8.638255867821588094e-03,1.773370008250705482e-03,-9.785759940635276877e+00
1.249699585183634137e-03,3.239326348800056817e-03,-9.789903679119682067e+00
-1.260296081155301497e-04,-6.208940251549143093e-03,-9.794014886993286595e+00
1.056429860631996967e-02,1.160795218081342971e-02,-9.799369806218068746e+00
2.765133718106882032e-03,7.285570056971346804e-03,-9.796674764078844078e+00
1.799382017229864865e-03,1.039834369852930124e-02,-9.792429355503925237e+00
-1.022072300886259569e-02,6.543182385246269599e-03,-9.799218358394417905e+00
1.093865670225207219e-03,-5.256508549101086662e-03,-9.789324542457002565e+00
-7.505251977915002341e-04,-1.077906159375986153e-03,-9.794157223218840969e+00
5.462480059296721639e-03,4.471915335454884274e-03,-9.792318416277192128e+00
1.018806509466257428e-02,4.965514996342446780e-03,-9.798566731784701389e+00
3.716951112747259034e-03,5.579857906985696316e-03,-9.786530061807592773e+00
6.679749529270361495e-03,-1.215394899070390902e-02,-9.794089570777572362e+00
-6.473839058995703617e-03,-6.746647461498396503e-03,-9.801890366016268175e+00
-5.693290850108216616e-04,-5.620248164193531598e-03,-9.797884518035752777e+00
-2.250095146275805404e-03,8.602600561448348060e-03,-9.789175173784608219e+00
-1.357493314122388238e-03,-1.410308563064975162e-03,-9.797520081367732558e+00
1.301209984806321347e-03,-5.299147083229852409e-03,-9.793271195069047863e+00
2.918067039340030682e-03,8.264663297676128756e-03,-9.796121081029355082e+00
-9.338730670350329013e-04,-6.624442051860066939e-03,-9.795331896663963533e+00
3.189268837580653149e-03,5.028978523955352116e-03,-9.785342188624673199e+00
1.947943732711808918e-03,-3.222509103704688637e-03,-9.797291332576595124e+00
-3.355995606372016472e-03,-4.325623943144801635e-03,-9.797318793947109583e+00
-1.086221886681604069e-02,5.707982957509153896e-03,-9.790774428737174517e+00
1.528437705964031269e-03,1.143749511793492116e-02,-9.790142812437935049e+00
-1.722052361318472495e-03,-1.194947181963190415e-03,-9.791999926169809854e+00
2.596779501348978839e-03,7.814399824575442299e-03,-9.791367333009963758e+00
-3.511177072606217787e-03,-5.866657044152886157e-03,-9.788678689245269737e+00
4.132453673976030709e-03,-4.911707486902672226e-03,-9.795260665899283126e+00
1.068764513747236635e-03,1.684372306920475749e-03,-9.800758540729663792e+00
-3.353399623624590733e-03,4.522995986215490598e-04,-9.800416452300979131e+00
5.876948941582754368e-03,-2.729199859657006032e-03,-9.794675593941203573e+00
-5.156726282018627566e-03,6.023204128271160071e-03,-9.808257645514238732e+00
-4.452805549446804678e-03,-6.855288080162516562e-03,-9.790088464735640983e+00
1.569933840544946932e-03,-1.244938765110896114e-02,-9.802519166426865382e+00
1.584824420823545150e-03,-3.809936217283471475e-03,-9.786587266159008536e+00
2.352789677460150573e-03,2.996214111266591942e-03,-9.796101113651634051e+00
-2.759378324786676117e-03,9.705297055908765347e-03,-9.791846417517426460e+00
3.032754983332175587e-04,4.228000343609233068e-03,-9.794017223756229740e+00
4.823344502797828788e-03,8.949099159693445823e-04,-9.790107186726459076e+00
-1.020360352550881214e-02,-3.531100945764646193e-04,-9.795734365142713784e+00
-1.143944842838659492e-02,1.299090331679673017e-03,-9.796147907119133080e+00
-5.214478806691957846e-03,-1.206070835495574520e-02,-9.793754120032973631e+00
1.150096527231975066e-03,4.829505823964029380e-03,-9.794890254022110554e+00
-1.652796256408469323e-03,-4.947150433288226897e-04,-9.793271284402463195e+00
-3.406767307767096745e-03,2.651596809624862799e-03,-9.793056288604757853e+00
1.221503330187690155e-04,2.630061129761093307e-03,-9.800889702146982074e+00
9.445404571728026593e-04,-2.552142254453151991e-03,-9.797356224866932806e+00
7.081708526723884921e-03,5.517495837815071524e-03,-9.798337851632576090e+00
4.821579916790625503e-03,-3.195863040245565737e-03,-9.796543470118304953e+00
-2.206717375142475211e-03,-5.198578196971443202e-03,-9.793658457051984456e+00
3.513763465776495107e-03,-2.680972420581326926e-03,-9.796913168168517316e+00
1.217674677666209359e-03,2.716009377883839802e-03,-9.790603492150859566e+00
-5.227103800543825979e-03,3.491726149214081963e-04,-9.793448872012392670e+00
-4.872381416824517024e-03,-1.474300882686999288e-04,-9.788956795065532290e+00
-3.751830979720902006e-04,7.022278065955205560e-04,-9.795110826811010085e+00
3.783470323722672515e-03,-5.914795536034011918e-04,-9.798212891613546915e+00
-3.397193786815785009e-03,-5.692745344993759178e-03,-9.791320586722925157e+00
-9.832271419634063675e-03,-6.779233212110402119e-03,-9.797988882468938954e+00
-8.366717002910802753e-03,-1.545752960248785498e-03,-9.793085092790569490e+00
-5.635952102858290090e-03,3.691434671068835865e-03,-9.797773624408501192e+00
-1.842817850121419940e-04,-2.739342276074344562e-04,-9.792034814177855040e+00
6.780173920522055732e-03,-5.772684059152815607e-04,-9.795689376589960418e+00
-2.432205126202658784e-03,8.915630560099394725e-03,-9.788808934998058930e+00
-3.013570219821403839e-03,-3.941292906526461639e-04,-9.794106086332634575e+00
-2.787846638910206147e-05,-1.936552872657707185e-03,-9.793176377305380598e+00
-2.582405720324263852e-04,4.324099491675463883e-03,-9.793272837729441349e+00
3.631919039698458876e-03,1.353330418787962019e-03,-9.803406443727860520e+00
-4.273413540650894057e-03,1.140581556503128405e-03,-9.792355422668762799e+00
2.684548955125325327e-03,1.701923118623690665e-03,-9.789441570787881020e+00
-7.274988842460981429e-04,-2.142797499319625248e-03,-9.796164358021941965e+00
-2.281137387375203017e-03,2.523826290859710730e-03,-9.793908278314479077e+00
5.412977599980894200e-03,-4.683290345348653863e-04,-9.793880799272313809e+00
8.894815512772179028e-04,1.343745812046662257e-03,-9.790003248774791444e+00
-3.828343523779346828e-03,-2.426216610998196185e-03,-9.791807781816121548e+00
2.395974906720290364e-03,-5.412501004369430282e-03,-9.794958843228034340e+00
-3.607247905657975321e-03,-4.311052773004743661e-03,-9.792520183053186500e+00
3.790874632272013892e-03,2.492798756794914992e-03,-9.795222268562628898e+00
9.935774237522481799e-04,-9.846427821062905209e-04,-9.791334648320596301e+00
1.027828772293407945e-02,-4.991589167170068855e-03,-9.790198494704533516e+00
-6.522966074266593577e-03,7.313474345863331394e-03,-9.797961324678553297e+00
3.311045926121067295e-03,-4.592806494532815365e-03,-9.794681139505149403e+00
-5.914206737195492995e-03,3.910249727492745055e-03,-9.784915564410489708e+00
-6.811383739955254903e-03,3.203247064638407252e-03,-9.787161288270462833e+00
-8.033896240202878861e-03,2.880449800744143613e-04,-9.797527851516655062e+00
9.223007863430821495e-04,2.403782403606180736e-03,-9.798282969104098683e+00
5.199820469243107007e-03,1.651305279778245106e-03,-9.797272866057488372e+00
7.767402790631284040e-03,-4.095897691205986797e-03,-9.794155643801024880e+00
-1.109016631802752645e-02,-7.263935010804340939e-03,-9.787154196399995953e+00
-3.606930674650933588e-03,4.691611953518463017e-03,-9.790595362291783843e+00
3.463297214937244382e-03,-2.539872636298363268e-03,-9.782688438155359378e+00
-1.360528455059361675e-03,4.412920800727321985e-03,-9.788313799738167731e+00
-1.044898899271321131e-02,1.086651412149684456e-02,-9.795903450120361455e+00
4.331358115957814094e-03,9.840865601831677665e-04,-9.800595900085529166e+00
-9.240050648318377802e-03,1.584061635148503776e-03,-9.790755869225447938e+00
-1.345217934678394258e-03,8.733346724853600657e-04,-9.790876201712782390e+00
-6.024721141134506235e-03,2.262917582417173657e-03,-9.796713117606751453e+00
2.619535307675783815e-03,1.365233879240631025e-03,-9.796540055722671170e+00
2.640444359023368798e-03,6.261622135072961171e-03,-9.793146670562791201e+00
7.408163055968429271e-03,1.063007009410056646e-03,-9.792673098479868443e+00
-1.207768949883261146e-03,-2.119836082525491645e-04,-9.789791076805936854e+00
-4.030436670446976670e-03,1.012918039240692618e-02,-9.803375487160538526e+00
-2.145018350320835546e-03,-1.646418441274262326e-03,-9.797938038793464699e+00
-2.543361295492733206e-03,-5.899063337720915866e-03,-9.794288018679122132e+00
-2.339587338839893441e-04,-1.650284197885264507e-03,-9.788511568563047049e+00
1.670783046555955609e-03,1.904165135649503980e-03,-9.787247783686137126e+00
5.719023021604332201e-03,-2.880961546336385445e-03,-9.790406363465924855e+00
4.497703182268197528e-03,-5.538618324768701008e-03,-9.794250069315497242e+00
4.005486360704602414e-03,4.419936721904865924e-03,-9.791740793235641505e+00
-2.632951501598605228e-03,2.758626630652297445e-03,-9.796880376845383154e+00
4.317318024960518463e-04,3.398363212918790836e-03,-9.797880375136525544e+00
-2.274570072458535330e-03,-6.444629018289408512e-03,-9.791697467641235164e+00
-2.389281363160606665e-04,-6.002908052008248778e-03,-9.790545756111031395e+00
-5.755704444377294018e-03,8.114210343243107504e-04,-9.791922415049095108e+00
9.066459851112691195e-04,-1.875025675700136034e-03,-9.801307512386488341e+00
3.369961626516335650e-03,4.322002563663820615e-03,-9.784916776023605323e+00
2.875487709994618141e-03,4.806790004485012209e-03,-9.796789638192411331e+00
-1.732151729867360910e-03,-4.927816509091957620e-03,-9.786114609789313690e+00
1.244366003194973588e-03,7.144350476557623057e-03,-9.788897176666276678e+00
-7.781257440600684167e-03,5.030372279996115671e-03,-9.801658869752664316e+00
-6.743702911835207890e-03,-8.683755525529851874e-03,-9.789620350659319570e+00
-2.153491218785864424e-03,-3.261044091051345552e-03,-9.797806640724655125e+00
-2.800727096961861100e-03,-6.839446609859385108e-03,-9.791129427945621799e+00
-5.008004768549414142e-03,7.006866946707617297e-04,-9.789977130619005763e+00
5.345934512979576454e-03,-5.068939828628165820e-03,-9.804479815201624149e+00
-1.779730621421776434e-03,2.281549658867603175e-03,-9.794598758858569454e+00
2.560724342861162538e-03,1.795074469072331451e-04,-9.788629414997382483e+00
9.895484829224473176e-05,3.153844687640272246e-03,-9.789794974037548059e+00
-3.292572241422362690e-03,3.800879308928411127e-03,-9.787486076509955168e+00
-6.042814777411178485e-04,3.223630402821856498e-03,-9.795888879623156242e+00
7.705931386186211547e-03,-3.018270496949077356e-03,-9.792296896732484157e+00
-5.943133163123955932e-03,-3.131892608810927289e-03,-9.801115603196741688e+00
3.910514998802601741e-03,-9.165901439847953368e-04,-9.790280314805842821e+00
-3.846253139556640981e-03,-4.895450416356222044e-03,-9.793526547462375831e+00
5.883737248930865282e-04,9.169099463770483821e-04,-9.788370695439166269e+00
8.188300947141536126e-03,-7.842144333479552677e-04,-9.795700835540937845e+00
-9.478360838339936444e-04,4.706610649972747459e-03,-9.793474149299678189e+00
-6.115141139231304590e-03,2.837056763778283367e-03,-9.800798326630273394e+00
4.215009639115251637e-03,2.910046370366659117e-03,-9.792611427353724807e+00
-1.057215005282882442e-03,-3.741003885478343984e-03,-9.797703790913327992e+00
-5.320326339490822828e-03,-8.156388151482561397e-03,-9.792509531543167611e+00
-6.375623572633110601e-03,2.441248063555217541e-03,-9.799427462091570007e+00
-1.200607213232869966e-02,-8.265063480029500101e-03,-9.796450943895441910e+00
-3.032441178455049869e-04,2.681570298911128795e-03,-9.795947031708758246e+00
4.422056954396162524e-03,6.601724950974285216e-03,-9.808057053352229104e+00
1.062074190378383548e-02,2.633318419686305617e-03,-9.791639216487228126e+00
3.117027176460125670e-03,5.634124676209169291e-03,-9.794257053430973414e+00
4.188604529940847566e-03,-5.379025592034148220e-03,-9.795904167414672514e+00
-3.303339318015445329e-03,-3.868807104153160637e-03,-9.801656598163528855e+00
-1.122767917801168261e-02,-2.543691067609874130e-03,-9.797606936009074730e+00
-1.732386743180497650e-03,8.208821144033056141e-03,-9.794469148593217156e+00
3.097199046655454806e-03,2.224154386852907669e-03,-9.785114091814772763e+00
-4.831274976524683150e-03,-9.324365045994968725e-04,-9.792783458956767717e+00
-2.940865897426903595e-03,8.016791317524489882e-03,-9.790336850993361040e+00
-5.649215368293339368e-04,5.480205326633244903e-03,-9.793202953962925505e+00
2.807306651098964104e-03,-6.392672217634410778e-03,-9.794759378051109522e+00
2.227019022626846798e-03,-4.309221676387005664e-03,-9.801618212442349432e+00
-4.239583466464691744e-04,-2.499665258381185244e-03,-9.789313444012716303e+00
1.035010268725803165e-03,3.423249158533773085e-03,-9.795850723045273156e+00
-1.097739846180641014e-02,-4.467770274315861073e-03,-9.793386024344048479e+00
-1.169929674221981738e-03,-1.032104833212883505e-03,-9.793404171423981452e+00
2.663721191112662558e-03,2.446529858777848876e-07,-9.795688019548212111e+00
-7.442255753419781041e-04,-1.748388612328071520e-03,-9.793410682861784622e+00
-4.701551564349184566e-03,2.790708329389633442e-03,-9.800174331936991834e+00
-1.406477022964832020e-03,9.689037300912329296e-04,-9.787212041280879404e+00
-1.031281795238324188e-02,-1.010046361898284464e-02,-9.792335957206136143e+00
6.171068898893184752e-03,2.689875386312678019e-03,-9.796829872402650352e+00
4.258064144340460364e-03,1.436621995019109980e-03,-9.794965160445366692e+00
4.160103997217955846e-03,-1.671187059956212714e-03,-9.792323329565290280e+00
2.117259074799094243e-03,-2.302277900701508746e-03,-9.786830070061935061e+00
-5.129401915427018489e-03,1.031281792396936689e-03,-9.790516577860218561e+00
1.620977436167676203e-03,1.138074895406093572e-02,-9.795532002175400876e+00
-3.806577519677519558e-03,5.515092442464356905e-03,-9.797961168065837612e+00
4.099159088643660994e-04,-3.226066081694812138e-04,-9.800165330475982373e+00
4.885045648955249099e-03,-9.638388027940552119e-03,-9.781483090988411178e+00
1.363263970476584052e-03,-1.030754088706292877e-02,-9.793255601510514552e+00
5.492875492333637328e-04,-1.786575363760722814e-03,-9.790467402525155904e+00
-5.883956312606284690e-03,4.513469010985858045e-03,-9.794211266753347189e+00
-5.381542872116298892e-03,-4.438317739871678463e-03,-9.797135345537377304e+00
6.804233601116133241e-03,-1.370187466089902275e-03,-9.801234210269628377e+00
-4.766994895899271528e-03,7.637791969917742587e-04,-9.803141015015533810e+00
-1.004610685888586950e-02,1.621326614834550650e-03,-9.796105588690108945e+00
-4.216327974546841412e-03,-1.514184572589859440e-03,-9.789212907664930796e+00
-4.165024891807329399e-04,-1.091117398324626710e-03,-9.800239653691091846e+00
3.503818982630943751e-03,2.083831515697400112e-03,-9.788857056940601709e+00
-6.333108943433295515e-03,-2.799595642086847441e-03,-9.794774177092312684e+00
5.400295724571966931e-03,2.991361265432913169e-03,-9.798937414409753188e+00
1.268103053766839530e-03,2.780038102203883678e-03,-9.785805630017573975e+00
1.743519367214590998e-03,-3.899668139957395731e-03,-9.789139117587531302e+00
-1.907815311967376399e-03,1.102953273033402794e-03,-9.790086383522071500e+00
8.074206479873577078e-03,-2.768819815516496401e-03,-9.795668799224714007e+00
7.248927606910559630e-03,-4.536311161473616932e-03,-9.791890117376420122e+00
-2.372618169960919420e-03,2.522218525479231858e-03,-9.792910100095589598e+00
-6.623223963388035276e-03,-4.174778274758553231e-03,-9.787080727353441034e+00
-3.057507251512875737e-03,5.948601865759631929e-03,-9.785708750435674119e+00
-4.566042861239593721e-03,-8.207965297130625018e-03,-9.799591309510111259e+00
2.549713835391331524e-03,-5.604157304741450192e-03,-9.798148775362323093e+00
-1.957559524737221331e-03,-3.271139920399731421e-04,-9.792343262445475816e+00
1.303020458490728025e-03,1.345893422671618107e-03,-9.796411735292307910e+00
-1.459611845444403052e-03,1.787006883376143340e-03,-9.791262031007653022e+00
6.069937693196619105e-03,5.643243904250782803e-03,-9.796832780233181381e+00
-5.813065655438410216e-03,4.288116116491081341e-03,-9.800190163216566219e+00
1.553740710458511752e-03,-1.037320807596035831e-03,-9.793803001358977411e+00
-5.806474650721546796e-03,6.166870715744686253e-03,-9.793709782854746138e+00
2.523373361819544573e-03,-5.579661280717327504e-03,-9.788237375732995460e+00
5.578554292625332277e-03,3.832669046330742981e-03,-9.791476818760189715e+00
-8.329415628979269662e-04,3.489492739035646770e-03,-9.791141204725354541e+00
-1.880657832512622454e-05,1.093361878429103921e-03,-9.786363523274015819e+00
9.970177613210519894e-04,6.273763837770431062e-03,-9.793788942728877345e+00
-5.971220647068783711e-05,-5.091537530182196902e-03,-9.788095957421599991e+00
2.981428434911141765e-03,-1.509023996212238358e-02,-9.802109523830782933e+00
-7.144649502607283362e-03,-6.183858247397873431e-03,-9.787348617406273377e+00
-1.609468858673719117e-03,8.116611533221903185e-04,-9.806423786550594102e+00
-6.555605568877560449e-03,-2.442024966943650253e-03,-9.803089766490263202e+00
-3.426315265268403687e-03,1.343122652739328496e-03,-9.792480916230086763e+00
4.247686734794093276e-03,8.230031022466801488e-03,-9.803320042715748528e+00
-1.619983193922187956e-03,-3.426764557894717515e-03,-9.794346427046999537e+00
-1.163097524843234500e-03,5.642781097517802352e-05,-9.791391253350022694e+00
1.615837566262720701e-03,-3.133466600180706899e-03,-9.799663543438480673e+00
2.082205672237292312e-04,-6.961683099237225836e-03,-9.803899769296647193e+00
5.334830907898397995e-04,-9.991905262870634692e-04,-9.788374146403846510e+00
-2.167823591256083735e-03,5.351892694047640994e-03,-9.797121590802364111e+00
-9.419284800384564171e-03,-8.218386876603582525e-03,-9.786459608257679577e+00
-8.704746404068233051e-03,-3.668074251524465652e-03,-9.791857796382211987e+00
-4.474581238476961313e-03,1.038944881962159316e-03,-9.787956657116097858e+00
-1.458405589885868362e-04,1.022375209776150724e-03,-9.793805575614664249e+00
7.926995937337278156e-03,1.664472650027644081e-03,-9.796112555871781424e+00
2.799476573765131721e-03,-9.053747584626284026e-03,-9.795011747263851376e+00
6.899287847185265124e-03,-6.112718425213541518e-04,-9.797346005498008381e+00
-6.568860428049545937e-05,7.382667408295800907e-04,-9.792775300008349504e+00
-7.058326766008698495e-03,7.792337432533985933e-03,-9.790920232868865369e+00
5.244695567631190054e-03,1.664865513170209416e-03,-9.794231855319619484e+00
-7.354254784924156227e-03,2.439248916099571833e-03,-9.790562812943822024e+00
-2.881443470263392488e-03,6.633456525013682950e-03,-9.787955289535405612e+00
-7.053145274207174575e-03,1.917444680413681480e-03,-9.792910999158587870e+00
1.143977387957476489e-03,5.055837028129798495e-03,-9.797460320806967715e+00
1.036625315352414757e-03,-8.146921371952579741e-04,-9.800741002477483477e+00
-4.245457051128330092e-03,3.417464414561405869e-03,-9.793550612817231382e+00
-5.896929573650054081e-03,-2.157616181496176816e-03,-9.801964763511106682e+00
-8.201886073954658615e-03,2.641817670706542252e-04,-9.793409173433275328e+00
-7.886973101734359032e-03,2.521856343197797275e-03,-9.805434804707239493e+00
-1.340427411865917611e-03,-4.004327515083874224e-03,-9.794854926482789992e+00
2.288554894296230321e-03,-2.429850424952934278e-03,-9.791901905361370950e+00
6.704128789963237356e-03,9.841407280287773826e-03,-9.790052823576051111e+00
2.033359943743746987e-03,-6.161511837995608393e-03,-9.795771690051315872e+00
3.039410115852296708e-03,-5.794796514170482728e-03,-9.790811872297364715e+00
-1.198931512608977486e-03,-4.667410436937437061e-03,-9.800053488053928064e+00
-9.325586891468905931e-03,4.519927206944139748e-03,-9.793261217207238190e+00
6.091095360847879718e-03,-1.573289607878223032e-04,-9.794064158206772674e+00
-7.747295387462831964e-04,-7.453652512328081607e-05,-9.798313686679122725e+00
-2.191018844556863986e-03,-2.359150115649346832e-03,-9.794257158894444260e+00
-1.758932690303378638e-03,9.455430383418800960e-03,-9.792398509836585774e+00
-4.291567709235921332e-03,-7.678580497676642798e-05,-9.791376716725840978e+00
-5.485792092836137834e-03,-6.118545595865381749e-03,-9.794630463312410384e+00
8.862456293002200086e-03,3.992134410109678469e-03,-9.796472474080333726e+00
1.413978652761694980e-02,-9.081599832837775402e-03,-9.795621146354719144e+00
-2.432810593860731951e-03,3.829453364547256555e-03,-9.792338627905282422e+00
5.217318255794021684e-03,1.712177684763844208e-03,-9.791741822104361503e+00
-6.675454674048091584e-03,2.343585680100227463e-03,-9.793384340771787322e+00
-2.827237585365981187e-03,4.039960497284922868e-03,-9.796262805302735188e+00
7.455449038180692175e-04,2.483933398875093779e-03,-9.792084106335853022e+00
-8.250374097631621093e-03,-9.147497053774131942e-03,-9.792538131515085453e+00
-5.795345683089601733e-03,-4.060198267841937970e-03,-9.804040223674784116e+00
-2.863943779241413454e-03,8.789346381665149102e-04,-9.789769756772839671e+00
-3.046470398160978053e-03,3.271816295687827504e-04,-9.794325152126177159e+00
-6.770880016451279963e-04,3.114047317462436543e-03,-9.795790002697161825e+00
-3.163473766033392948e-03,-1.593650336737684886e-03,-9.791086357178571120e+00
6.715851749041694234e-03,3.376538722497547250e-04,-9.799565769496632939e+00
-8.012282211659016396e-04,-4.701486985416694804e-03,-9.793483854723533000e+00
-6.026301508416418524e-04,5.086362500751393997e-03,-9.795582050049738143e+00
3.669616795601523141e-03,-6.273457556836475879e-03,-9.797823406203326257e+00
1.196156221065750903e-02,-6.312872889959540712e-03,-9.792381242682939302e+00
-8.984680262280810015e-03,1.488487129408865017e-02,-9.790754023485828128e+00
-2.435287254098861699e-03,-1.409011042473032414e-03,-9.801721969148271540e+00
2.499310529084905908e-03,-7.795738270624729630e-04,-9.799451164063002651e+00
3.813102325654234986e-03,1.950787340370211450e-03,-9.790296648924984524e+00
-5.821412025244090439e-03,1.197067381894150644e-03,-9.791908496543907603e+00
-6.310380828178748435e-04,3.395754169671652990e-03,-9.789022453871655927e+00
-1.559699709362878011e-03,-4.997542291525820628e-03,-9.791912430626757313e+00
-3.005561710198452908e-03,6.424852381963441772e-03,-9.791122765049209420e+00
6.845413036274902198e-03,6.415023307905884549e-03,-9.808261289447857578e+00
2.663141685108417860e-03,-7.332211192176268759e-03,-9.787373463253342010e+00
-5.842338516746409423e-03,-1.640985238940277473e-03,-9.794393950731526743e+00
-2.144171726081639095e-03,-6.961687755285735253e-03,-9.791553378092086035e+00
-2.503296139415159011e-03,-1.022580476868127294e-02,-9.793821484633808083e+00
3.119126382318761562e-03,1.927575283963132904e-03,-9.788927880670199144e+00
-1.943141638677292051e-03,-1.777171454063222430e-04,-9.795842672435520981e+00
2.190663103979772087e-03,-8.608273485721656959e-03,-9.797121278954204371e+00
5.261727105345081514e-03,-2.968496007091423090e-03,-9.793191754374555913e+00
8.171180721360103705e-03,-7.960101335730595043e-03,-9.789327732659602432e+00
2.250677692099623678e-03,-6.552424168269059546e-03,-9.794722781059849837e+00
-1.883615075435085421e-03,-3.136586775572301495e-03,-9.791504393855856136e+00
-5.416903899094735117e-03,-1.468192241742084358e-03,-9.803117867407607378e+00
4.701051393174307709e-03,-1.703701948881541223e-03,-9.785337456826125546e+00
-5.730982937727853617e-04,2.229911135944567888e-03,-9.801073181097551767e+00
1.964077348684352875e-04,7.813432583501403808e-03,-9.781829863700677308e+00
-1.282760767595646906e-04,4.375458172906196777e-03,-9.793013064977042603e+00
-3.787405375211112812e-03,3.822672551698250501e-03,-9.790524163425867954e+00
-1.101232469276804214e-03,4.690769473404699137e-03,-9.787896719661619116e+00
-2.303071353956343686e-03,5.973958514500297967e-03,-9.789721403064417515e+00
2.081910009000916082e-03,-5.794050254523596018e-03,-9.784040830474886263e+00
3.240185031043240921e-03,-2.962237498888642146e-03,-9.787697578171139057e+00
-7.486389029198630904e-03,-7.327304757799590201e-03,-9.801423092956756733e+00
1.673529210871815874e-03,-7.237009383829912275e-03,-9.793727530889738020e+00
4.339978655243306206e-03,2.506728059835887281e-03,-9.786908966468791604e+00
-6.845709539030099371e-03,-1.962793833339447364e-03,-9.799816740898997125e+00
1.911236509040523839e-04,4.829383004685192798e-03,-9.788779059613830213e+00
-7.501638572660869822e-03,-1.162749972918402991e-03,-9.789587834183613779e+00
-9.278238483625638952e-03,-3.529909899540703121e-03,-9.802337460583620654e+00
-1.725639727031865324e-04,-3.382801807360203273e-04,-9.795507470454023036e+00
-7.279550647496637120e-03,-7.283034038675586901e-03,-9.792062639933281076e+00
-7.601377749618332992e-03,-3.755512669684578104e-03,-9.790505839461365767e+00
5.736408046053912552e-04,6.682362429336668498e-03,-9.793368715234404220e+00
-1.394194085987423204e-03,-2.638991782406494447e-03,-9.802968878580344381e+00
2.940787899662109395e-03,-1.305478802889051574e-03,-9.798099125856401415e+00
-1.326319142251115466e-03,-7.414743619257843470e-03,-9.787052144917934626e+00
-1.212146598296337356e-02,-5.430328637873396355e-03,-9.795573897193170509e+00
1.609537366266790628e-03,1.895284412889330808e-04,-9.795963636970332900e+00
5.004830587289020409e-03,-5.862796994745313010e-03,-9.791821219886992722e+00
-2.012978004674680671e-05,2.699338821141664992e-03,-9.798211784066433339e+00
-7.188804490785841682e-03,-9.382711696242754165e-04,-9.795463107034718675e+00
-3.248596989585124644e-03,1.047083551115660571e-03,-9.792353259320885073e+00
1.264313928397970896e-03,3.735257963158211247e-03,-9.792066014581417122e+00
2.565463055043645021e-04,2.747491829032858764e-03,-9.794018816572810593e+00
7.172427254559909926e-03,-2.579396449189327086e-03,-9.793117305814806883e+00
6.116850427099232781e-03,5.753438985405127763e-03,-9.796422325838380019e+00
-6.017616532195439565e-03,-3.909106324563303182e-03,-9.785424416115002799e+00
-2.889050413276579403e-03,1.526436261754049581e-03,-9.793255686226146395e+00
5.014816444037422348e-03,8.195961096261646095e-03,-9.796350446222005459e+00
5.321972401690675848e-03,-4.462032609262957250e-03,-9.790462850903942638e+00
2.425355043405236135e-03,-2.377049170020488142e-03,-9.791045765667178102e+00
5.113192763257454546e-03,-7.286572263045206985e-03,-9.792520889881965118e+00
-3.096168072938055172e-03,5.342839366317927649e-03,-9.797241955931115243e+00
1.146533121908932149e-04,-2.799355350595294340e-04,-9.800020935700986868e+00
2.227363802716336109e-03,1.058890127251062123e-02,-9.788820375700298726e+00
4.022537343982992772e-03,1.175512305385972725e-04,-9.802183088577194781e+00
1.167551416486620544e-02,4.711935764420313285e-06,-9.804146441831790071e+00
-8.006626901482103570e-03,4.717197492454681864e-04,-9.790408213220604949e+00
-2.505135890479357700e-03,8.523199195740141509e-03,-9.795663633516165092e+00
2.430875556234308055e-03,1.322079644989928096e-03,-9.790114223998010345e+00
2.721792363234374224e-03,6.406199852483367325e-03,-9.796045343229648594e+00
-5.486843118364071077e-03,-3.815276621810261091e-03,-9.792129373459793840e+00
5.638495399575512747e-03,4.291297036596020825e-03,-9.789990502644418058e+00
-3.935960593335721333e-03,7.457631757400873945e-03,-9.796244393795346284e+00
3.832206910372363325e-03,1.010209730213126921e-03,-9.795600998819407934e+00
8.102982551798981400e-03,5.654000052313413321e-03,-9.794691362387364819e+00
-1.349490940442624361e-02,4.579548951442429308e-03,-9.798372971767440376e+00
7.775768323810606543e-04,2.870954010414473751e-03,-9.792582787631523900e+00
-3.815189701978109835e-03,-3.602812872393666363e-03,-9.795877852205244096e+00
-2.764686616752391485e-03,8.985569215305929443e-04,-9.796648032825160612e+00
-5.138225671887691921e-03,-2.327938173315838560e-03,-9.793237257999905410e+00
-1.166139595918249706e-03,-6.933807394673406101e-03,-9.799866043997948140e+00
-3.949005805958678275e-04,-2.038035837045877163e-04,-9.793529016151046207e+00
-9.971576421059313942e-04,-5.464952825521785830e-03,-9.788053799236459795e+00
-2.360400543863863145e-03,-2.002706509426487470e-03,-9.783179729345469866e+00
-5.579037435434828184e-03,5.582295592090560747e-03,-9.783009807656965151e+00
8.194697509335855529e-03,8.332453333728919581e-03,-9.788215051221818896e+00
4.785749823211495231e-03,-1.843192237788969512e-03,-9.794158634448038470e+00
3.661206923893336150e-03,6.052664445934734586e-03,-9.794884728840612453e+00
-1.548487674185511755e-03,-2.344992463820663904e-03,-9.795706194467101113e+00
-6.987510068008918537e-03,4.966296820850506742e-03,-9.787069545943774429e+00
-5.506481557301446013e-03,6.168541680814520686e-03,-9.794612604257705968e+00
3.867489087022505084e-03,4.573771270269941756e-03,-9.788610359743126210e+00
-9.640419643355069637e-03,6.834556134014471707e-04,-9.789329905133767440e+00
-1.661325710361337632e-03,-2.696163914433762770e-04,-9.799718436383978215e+00
-2.465496437366780993e-03,-1.198129897471733032e-03,-9.786825134454785413e+00
4.994126821680041489e-03,3.398408551768517492e-03,-9.792208480082141620e+00
-5.037695483550402864e-03,-5.039324091923909864e-03,-9.797416995569530940e+00
-7.527062081999334568e-03,-3.912936859362629340e-03,-9.783352104087752465e+00
5.255114004861061172e-03,6.588489248562176374e-03,-9.793304873784379083e+00
1.702223875380472857e-03,-1.295633043862669384e-03,-9.797824098877054411e+00
1.079949169519671577e-02,5.221718554427114654e-03,-9.796227103781877332e+00
-1.577435268726813178e-04,-1.456872432250417865e-03,-9.797641490236877360e+00
6.308222535882584449e-03,8.587674216679504202e-04,-9.796605719604825069e+00
6.694427896331186546e-03,-3.791017593760731812e-03,-9.794444202398986832e+00
-6.002183624399881103e-03,1.285129065645800516e-03,-9.799104894196606352e+00
5.011904226677955237e-03,-4.177211818318674226e-03,-9.787348388686947231e+00
2.103618907647166868e-03,-4.135878217055856745e-03,-9.792556562528329067e+00
-4.257659883440027306e-03,2.497183211333467261e-03,-9.798641220862203127e+00
-6.355891639440217587e-03,-4.155264975839126178e-03,-9.802622360353316466e+00
-6.517168989826139722e-03,1.161772811953699566e-02,-9.789208369238036056e+00
-8.131622930898916787e-03,-2.626294068950084295e-03,-9.782774530605061969e+00
4.535189514928421209e-04,-3.183327849844464017e-03,-9.792225561617161844e+00
-2.073840134902614658e-03,-7.111649790694781620e-03,-9.793210489018239429e+00
4.971682390248572878e-03,-3.332582119785687177e-03,-9.795618673056903702e+00
1.567188938369312983e-03,5.329269690849917397e-03,-9.794043406138147390e+00
-3.525134690019607938e-03,3.996059311102611276e-03,-9.795263105564140815e+00
3.696824841210126218e-04,7.269296671081355160e-03,-9.795957981615929455e+00
-7.977936045904130899e-03,4.411675958796501713e-03,-9.789879953331846352e+00
-3.855322667990190941e-03,2.301531952082997833e-03,-9.795287183678540899e+00
-3.132418980426481848e-03,-6.723448711842049640e-03,-9.796495369755655602e+00
7.441129715582008898e-03,-1.501197661114722550e-03,-9.792094257104704269e+00
1.053600521552191160e-05,-4.398538289956349309e-03,-9.788984661316632696e+00
5.349054825472754175e-03,-2.733737550192137048e-03,-9.791305705567339146e+00
-3.517858779451470906e-05,-4.212926331921863776e-04,-9.795868834569576578e+00
-2.894004596810103008e-03,5.018040707546396126e-03,-9.795411146856420004e+00
6.801642323058520144e-03,-4.715892631516081790e-03,-9.785459438468299354e+00
-2.584345783756870213e-03,-7.468077831113000518e-03,-9.793832949149223310e+00
-8.972008480736572145e-04,-1.820078011912785359e-03,-9.798065674838248640e+00
5.200111470660074599e-03,-6.807089736379025140e-03,-9.789812971324925783e+00
3.422011102137667549e-04,-1.202187878651925917e-03,-9.795061025773287966e+00
4.083744669064885355e-03,8.908214134867254103e-04,-9.793780822242645456e+00
3.916254679245943435e-03,-1.012143228587732580e-03,-9.791979467886079647e+00
1.790684612234854097e-05,-1.257074320111732212e-03,-9.786952622010041125e+00
-1.270136866511748040e-03,-7.727058957799592650e-04,-9.795055777125320162e+00
2.418380010715904648e-03,-7.247637624765900172e-04,-9.790176555989541285e+00
6.689481371462064393e-04,1.375197647033652880e-03,-9.793143047375055588e+00
-1.043271386158067630e-02,-7.189585713955096938e-04,-9.791042706051598543e+00
5.267067270921220630e-03,-6.257123513467816728e-03,-9.792981723383231696e+00
1.282323802212107433e-03,-3.981062610826589451e-03,-9.790411178685525684e+00
3.105306609079924469e-03,-2.456844392586921000e-03,-9.794250822973410209e+00
5.635267637492589327e-03,-2.515031946660645744e-03,-9.787457728843705240e+00
6.255449980854857137e-03,-6.126104113088022725e-03,-9.797359867711740833e+00
2.688361234004618856e-03,6.245272580373292456e-03,-9.793616779757574164e+00
-7.108419134081681023e-03,2.203371632807004255e-03,-9.800024557045547979e+00
2.791988055044613420e-04,3.991375205983286115e-03,-9.799682952813006054e+00
-1.515579050684457470e-03,7.801149192136707863e-03,-9.787948887335458537e+00
3.044426273910310048e-03,-9.168381133451246334e-03,-9.794892161165993372e+00
2.820004623577407137e-04,2.888687871052602035e-03,-9.800230691594947530e+00
7.579747939522520073e-03,-3.604544336509954774e-03,-9.799580552168523084e+00
3.470783331022801906e-03,3.714083785171858922e-03,-9.803521631731133112e+00
8.541164529344886028e-03,4.934025249105525139e-03,-9.788467808875498832e+00
-2.073815072079612364e-03,6.736065116602724069e-04,-9.788995004410457668e+00
1.699757698920345951e-03,-5.093920043026232795e-03,-9.786735480128440301e+00
-3.602181906647084104e-03,-2.010985406004237031e-03,-9.795863560227870082e+00
-7.897115478441847462e-04,-3.292055133843960982e-03,-9.801092886282143368e+00
-1.947373284442351039e-03,-2.431097981489165668e-03,-9.799476889825934123e+00
-2.096483621359685606e-03,-2.339661518366247320e-03,-9.793845664458961764e+00
-7.316803212038497199e-03,-4.712551222899417393e-03,-9.796293268677167987e+00
4.547406727002337059e-04,-7.023559194244477673e-03,-9.791202811639671211e+00
8.487643520216917731e-03,1.333400310956958093e-03,-9.799836529030187648e+00
2.586410649235479538e-03,3.559641497305738797e-03,-9.795109397266781315e+00
-8.518024142809872343e-03,-1.034218011659922970e-02,-9.796888066183031540e+00
8.385932706926764110e-03,2.678945333848660806e-03,-9.792976521166499637e+00
-8.042534375665324857e-04,5.732932970417004177e-03,-9.796150498191089184e+00
-7.225440803385944216e-03,-2.709470561287913564e-03,-9.804095599002973671e+00
3.357031524038553991e-04,-2.010541591118392753e-03,-9.791252476168130769e+00
2.555544985498918020e-03,4.095799969173531153e-03,-9.790111309606173151e+00
1.401504653099839431e-03,1.170311873085808346e-03,-9.792846497576276121e+00
6.502180434091375458e-03,4.653436773734086727e-03,-9.788122885503362625e+00
3.927689236709976106e-03,3.210332266787621278e-03,-9.798102549038070208e+00
-1.432938619736082183e-05,-1.158263097646696459e-02,-9.791656229089847230e+00
-1.599784942955179146e-03,-4.401392919185278738e-03,-9.792617820133253659e+00
-1.052603258751565532e-02,-3.586763301448831365e-03,-9.789942152724757207e+00
-5.448855156634640866e-03,4.344498089608590970e-03,-9.795747564444241107e+00
1.218891795229391437e-02,3.478518103199200375e-03,-9.786970074534293573e+00
7.934107121952298225e-03,-6.364391066664453096e-03,-9.798811891092208626e+00
-3.744982908279893136e-03,-1.328183260705091987e-03,-9.803711882688476820e+00
5.217535578242222909e-03,6.657564606204059536e-03,-9.796999844664499690e+00
4.935447515099092644e-03,8.406984504196557059e-03,-9.800110860744746688e+00
-1.678806539776282400e-03,5.674932113238093968e-03,-9.800491786733800836e+00
2.874336157137559380e-03,-4.221417933547187348e-03,-9.789757679241652966e+00
-9.149923514151683812e-03,-6.997205666827985455e-03,-9.801956692927788595e+00
-2.136776018668556237e-03,2.781990278055837280e-03,-9.787776190905981721e+00
-7.705082443803884518e-03,-1.142482220832249755e-02,-9.794035448415819189e+00
-4.344138633148710536e-03,8.410336158161051123e-03,-9.796171882056441405e+00
1.347012769602992308e-03,4.613849308867532840e-03,-9.790224499314087225e+00
4.644259830451994038e-03,1.183725956445044920e-02,-9.792264683221075572e+00
4.573671949597166164e-03,-6.057637062464225029e-03,-9.794864300647152078e+00
-7.848955777747057203e-03,7.299718726976162607e-03,-9.795563208278588618e+00
-6.848952781947276192e-03,2.838290676942481928e-03,-9.796158528409938171e+00
-1.413143887287774238e-03,-2.808644538250724704e-03,-9.791383724302603397e+00
3.957206312841609827e-03,1.196088445555727568e-02,-9.791056914077394424e+00
-5.363027945451448279e-03,-6.064459479276348118e-03,-9.794809280078048630e+00
1.313930534357082283e-03,-2.399319371397373377e-03,-9.789853203114962099e+00
9.948168974597689732e-04,-1.974985519187677074e-03,-9.786388988145493073e+00
-3.678632924480561804e-03,1.301416120443521377e-03,-9.798698591771897171e+00
-7.320214137530312026e-03,2.688103129187188571e-03,-9.795763048707835097e+00
2.338925568956873313e-03,2.688468672213651777e-03,-9.795988295192270101e+00
-1.623767917574854666e-04,4.123950529627392649e-03,-9.783601533696680619e+00
-2.146406192188183345e-03,-1.635197030602042944e-03,-9.789714424550732375e+00
7.906858369529073255e-03,-4.766246170345140795e-03,-9.796345503890952600e+00
2.466486323900714348e-03,-1.008826128149919706e-03,-9.789218788233009505e+00
5.627010609710390680e-03,-4.539934067938248587e-03,-9.801109690573026612e+00
5.668196379924082991e-03,-1.007372927323755413e-02,-9.798994294602239918e+00
-7.004910765679366741e-03,5.923815962732265246e-03,-9.799169585156501938e+00
5.641223505173540050e-03,1.922068243685581780e-03,-9.793768769054526757e+00
5.404994442428931803e-03,-1.010173720398372527e-03,-9.791123168587860803e+00
-3.761659268218198182e-03,-3.718477503562869768e-03,-9.796323209586313752e+00
-9.560690319808502974e-04,-1.343275533233190353e-03,-9.796918988453425570e+00
6.747131746726478356e-03,3.543815384519373880e-03,-9.798276885515873502e+00
-8.133192827211609133e-03,-1.016072419048016364e-03,-9.776893945580232170e+00
-5.199591720072210994e-03,2.263931395537085675e-04,-9.792309585383156545e+00
-9.369598173623169476e-04,5.037369297137379246e-04,-9.788816654832764641e+00
-4.058234739856710592e-03,1.896840931654230657e-03,-9.787746507404653684e+00
-4.407122315018826425e-03,-6.352859737527384414e-03,-9.799460462221144752e+00
5.615169368405673739e-03,-4.238149736533247669e-03,-9.783893276020625862e+00
3.538241543428211630e-05,-2.824397297777168133e-03,-9.788729886378556344e+00
3.006682129447553475e-03,3.090579171094259402e-03,-9.789671168551386415e+00
-3.645807017154117143e-03,-4.496230463289640090e-04,-9.794212815969283170e+00
8.559449781174409671e-04,-3.265369937461728208e-03,-9.792793431591631403e+00
7.850170016071963052e-04,-2.177389833669091286e-03,-9.792670067084468855e+00
6.607840257203958026e-03,5.391118625379365779e-04,-9.790617467150488196e+00
2.723757269808687264e-04,9.452485021823288022e-04,-9.801464541458607016e+00
1.550712736643514080e-03,-7.728947937378684990e-04,-9.789467863395312719e+00
-4.635778436258810448e-03,-2.071954989095715471e-03,-9.797313190737483524e+00
-1.033223376248465757e-03,8.733491410735276864e-03,-9.792180335489444332e+00
-7.852455522918633463e-04,1.181791608994008829e-03,-9.805139330368202621e+00
2.720129139933739892e-03,-3.469680010507994808e-03,-9.795265845061258858e+00
-1.413835906877277488e-03,4.851274418431645273e-03,-9.792517618631270793e+00
-4.398264998149237562e-03,5.855718900198089889e-03,-9.794396368580295942e+00
1.729232346174514739e-02,-1.664098955526916411e-04,-9.790565362084633350e+00
-4.519170768833793810e-03,-1.761884245116115575e-03,-9.796453885782058890e+00
3.111308185864406460e-03,3.795179061812533044e-03,-9.796266986797277809e+00
-1.055997573721157573e-02,2.587184065928225737e-03,-9.790459820827852155e+00
7.069768811926896088e-03,1.040251472769125607e-02,-9.789797535139870277e+00
-8.507243209504904364e-04,5.022628968660886213e-03,-9.788493496230856294e+00
1.173230524771414970e-02,6.909514749096516868e-03,-9.793265268316751815e+00
-1.349335527774765675e-02,2.749057937720643385e-03,-9.787110383621403287e+00
6.969208945693425002e-04,-5.128776615696432027e-03,-9.798879219705554533e+00
1.827264108964384709e-03,1.475319159911300023e-03,-9.801829194758441943e+00
-5.106488968424186420e-05,1.434335104988186498e-02,-9.795051207965238760e+00
6.138758199866338125e-03,2.417898569867329463e-03,-9.793196683979003225e+00
1.334545618045894109e-03,7.549422417155975638e-03,-9.790702469889994930e+00
-7.324827584332313339e-03,2.970158178968519344e-03,-9.789929892773994169e+00
1.643830866387303684e-03,1.860576841131508048e-03,-9.795012593377947496e+00
5.545693444191928875e-03,-4.159072642814394365e-03,-9.787150980721646576e+00
6.087126226900477569e-03,-1.278997252535334474e-03,-9.799891430082132260e+00
-2.018095273793712226e-03,5.850366464375038496e-03,-9.789171717391448979e+00
-5.486471092625112150e-03,2.872362499727000498e-03,-9.794609467654678880e+00
-3.781223486023015757e-05,-6.845349044246635574e-03,-9.798812439712222044e+00
-5.732867621851268393e-03,-1.802543877127202668e-03,-9.799804962829684385e+00
5.709290876762080150e-03,-7.669561160671817517e-05,-9.792023455676025279e+00
4.622939864361672903e-03,7.434012526170960360e-03,-9.788086262716161556e+00
-3.147798022671362446e-04,-5.720008810010269312e-03,-9.784506205872501639e+00
-1.139099020566462089e-02,9.899483654360200294e-03,-9.793644832891738261e+00
-2.280199815151473291e-04,-1.504284064402299512e-03,-9.795848977862464224e+00
-5.796813144047562125e-04,2.767267969932595949e-03,-9.788143864786608361e+00
9.824441378623351151e-04,-7.717451825396954949e-03,-9.792670369828449850e+00
-1.922850603790426547e-03,1.668481742360314584e-04,-9.790530455480446648e+00
3.034274780504684320e-03,-2.041510289209014228e-03,-9.792234712561446841e+00
1.761716441506072997e-03,6.428465405913888833e-03,-9.797145289853668615e+00
-1.999011109080771082e-03,3.565659219388561891e-04,-9.797805649263970906e+00
-6.969090074021823226e-03,2.262709725704731886e-03,-9.796484422302185635e+00
3.213689613547704872e-03,9.496821089082459200e-03,-9.800104513919453808e+00
2.736161648975295787e-03,-2.049176173507920480e-03,-9.796477347851398676e+00
-3.931792078429495463e-03,-4.701453664913555174e-03,-9.798198263775711681e+00
-5.187768944496280385e-03,9.050595027616931132e-03,-9.795207216949496143e+00
6.453628541894182620e-03,4.922602483156715905e-03,-9.789762921074752100e+00
-8.976031177007903761e-03,-1.579607990028538203e-02,-9.792257523801774610e+00
-1.934880277926783517e-03,-4.051787960511468376e-03,-9.797736385704983064e+00
6.186719893834013995e-03,-1.050243881596839811e-02,-9.797999392620631909e+00
1.608106578168545797e-03,1.183596222964113239e-04,-9.796661172608065016e+00
-2.080392893012554013e-03,8.785946169861865232e-03,-9.796232184142162680e+00
-6.048258100560068885e-03,4.045843962206651517e-03,-9.790691075410295596e+00
-2.923533014929805083e-03,-1.412959392357137104e-03,-9.792504020021564060e+00
5.947937772162708702e-04,-2.113702946759080277e-03,-9.799133589247178477e+00
-5.743758585591641867e-03,1.434761724009168439e-02,-9.797704403019130481e+00
6.607183934413236003e-03,4.489325863553341421e-03,-9.798174892059613228e+00
-2.468917754446306369e-03,7.593913951365170332e-04,-9.799003483154367089e+00
5.573411350502021841e-03,1.887711382372015594e-03,-9.789230527836695117e+00
4.091155522819639977e-03,-5.990630211552481522e-03,-9.803659780207562235e+00
-2.209514305163814887e-03,6.754048693204079551e-03,-9.805104592141281827e+00
6.750491578029010030e-03,8.774453589160038230e-03,-9.795275307229255546e+00
7.639689975055581270e-03,6.492687613424069810e-03,-9.789563228767246272e+00
-3.200800630043432638e-04,6.616901611586485351e-04,-9.798655087629422056e+00
-9.199631288772221194e-03,1.502260099336782777e-03,-9.797687019295079125e+00
-2.105770516884747975e-03,-1.339864059259056285e-03,-9.795534618484960987e+00
-1.002853847335838161e-03,-3.014623647567653275e-03,-9.797348384935668619e+00
-1.878364237606725082e-03,-2.377632315134066594e-03,-9.799745217264742791e+00
3.991277123854920024e-04,-5.346630736921690122e-04,-9.795010369238287495e+00
4.322391272569941199e-04,1.356177873558458990e-04,-9.795559964184340274e+00
6.613528928162450138e-03,8.116991963905962476e-03,-9.790361690371952363e+00
-2.227170797333664475e-03,7.430553585555232238e-03,-9.795020370126790610e+00
-9.409698131322666477e-04,1.713602617288180040e-03,-9.797226927612468828e+00
6.698854033884401975e-03,6.065097074811731225e-04,-9.797802450712083555e+00
1.876006324312115529e-05,-1.371390263740302276e-03,-9.794747240976965585e+00
-7.197558645593184548e-03,-7.758838050688107897e-03,-9.805981455552322146e+00
-1.538457044215780578e-03,-2.228948586282297143e-03,-9.799517771678287303e+00
-8.375219052674664913e-05,-6.783843134250725458e-03,-9.791997258151109662e+00
-1.148436702506917730e-03,-4.438047054186233277e-03,-9.787993347424672308e+00
-2.409217404350649273e-03,-4.523377055049541615e-03,-9.791631845168401682e+00
6.338051047991572449e-03,-3.528371710780734815e-03,-9.791186097257574161e+00
5.222820145695735404e-03,-2.083143593828650289e-03,-9.796912887073011333e+00
-7.109338442142018079e-03,2.392583354341496187e-04,-9.792859569151278976e+00
-1.775841824981472033e-03,1.414135633704937455e-05,-9.795375748283024819e+00
1.078555698081865672e-03,-6.842207207823680463e-03,-9.794395082809765896e+00
4.444403717048531210e-03,3.535737296615861815e-03,-9.791205497879925446e+00
-8.119826662344640199e-04,-1.814056218856034512e-03,-9.787138279565953169e+00
-8.331390074004815446e-03,-1.318511631307700202e-03,-9.797302192510727537e+00
-4.831268153759738990e-03,2.497483406153229099e-03,-9.793735879026682412e+00
-1.702870687036536919e-04,2.117359844849091375e-03,-9.794188672773277204e+00
5.751723377626883141e-03,9.222094436232767102e-05,-9.800225665819292331e+00
-7.699558206245469497e-04,1.371550055057325912e-03,-9.802335287246913609e+00
-4.935235642022341163e-03,-3.473706899944464289e-05,-9.797358482410960079e+00
-4.897585197401765379e-03,-5.471540353099157983e-03,-9.794823299907255532e+00
6.355844805743580614e-03,-7.229683929693512048e-03,-9.796654669905315416e+00
4.833199274311433965e-04,7.398108966274229495e-03,-9.798110558420001226e+00
-2.475539971104121070e-04,1.726020363299695650e-03,-9.792378504492084801e+00
-1.419158080075548414e-03,-5.795253514139345023e-03,-9.793810845048918523e+00
-3.691845395603165266e-03,1.495521765984805839e-03,-9.799076455708901179e+00
-5.352359063710572518e-03,3.065905396582686675e-03,-9.787761730693507189e+00
-2.317029107112718398e-03,-2.298428966970221705e-03,-9.794717528950162233e+00
1.673693424107402540e-04,-3.056939149079795654e-03,-9.800464024131445129e+00
2.327527064885723772e-03,-4.609597796922787201e-04,-9.788899580958702273e+00
-1.059070532649336767e-02,1.371104600142863950e-04,-9.800147514919904879e+00
9.735184059742308348e-04,2.679936719152919023e-03,-9.793391799987027468e+00
-5.267690692435613407e-03,-3.342529208279290849e-03,-9.785116022310978323e+00
6.028494359027664930e-04,2.444793998695970333e-03,-9.797930461300170535e+00
3.585349350905442118e-03,-1.245880664166620043e-02,-9.788619831112495007e+00
-3.555511108381655561e-03,-6.130496663835380798e-03,-9.793232599157905227e+00
2.089257252404421762e-03,-3.443052922504562480e-04,-9.796920194516614444e+00
3.345981831629358302e-03,-8.889778791291767443e-03,-9.786792022669633440e+00
1.792081068181755653e-03,4.745267287576752403e-03,-9.789241573923350259e+00
-3.064922673055081159e-03,-3.727728511118894202e-03,-9.785551042699372815e+00
-2.985845725974478442e-03,4.882022120959372477e-03,-9.793309464979909507e+00
6.320012460248426028e-03,-4.865792529896853687e-03,-9.789403149694928530e+00
7.767206087685484331e-03,8.088970086500160347e-03,-9.790730157374056830e+00
-3.489332078179699197e-03,-4.466835569648139152e-03,-9.791820116716102973e+00
-1.756577542173803517e-03,7.658863138235164547e-04,-9.793710364125184142e+00
-3.822354218500694130e-03,3.423396929540487108e-03,-9.798393515613701865e+00
6.254020492756125725e-03,3.810868456201542496e-03,-9.796284163025502423e+00
-3.577567575229490589e-03,1.891400715087442714e-03,-9.789944368619558190e+00
2.574126804707302461e-03,5.584006121652802281e-03,-9.789261941145189994e+00
6.004970571831779944e-03,-2.395421055260833678e-03,-9.780371629028701719e+00
-7.494928021342976525e-03,2.961901354534442025e-03,-9.791067396214051755e+00
-1.477790674453986243e-03,1.259474291877295130e-03,-9.788533605859811360e+00
-1.974413971136548731e-03,-4.325758568245207693e-03,-9.788664001772085399e+00
-2.358812148712946533e-03,-4.689643156632398416e-04,-9.795649304677491287e+00
-2.182494218590458335e-03,-2.271986649064776029e-03,-9.794911775175789259e+00
1.700727776537578565e-03,-5.595682050964267788e-03,-9.800273752693017926e+00
2.273464198636398776e-03,1.091521175192099700e-02,-9.802036122664910422e+00
8.833901342988515967e-03,4.076616111134344703e-03,-9.789465557025806675e+00
-1.774680230361742970e-03,1.353448478930156535e-03,-9.785913242741537843e+00
-1.827207340428823115e-03,-5.224511365594824638e-03,-9.787803260676321671e+00
-6.263678080429524106e-03,1.370478215315817320e-03,-9.792683030232797847e+00
6.344581489826260027e-04,-3.811284161730472617e-03,-9.799505890984464784e+00
5.909090155919682202e-03,2.081621236962813166e-03,-9.793503678191868289e+00
3.559875734850959377e-04,3.129729740804167073e-05,-9.790857360833973289e+00
3.275087529459984846e-03,1.243072441088297628e-03,-9.784419187385317684e+00
6.660734710692473373e-03,-6.113065932507618858e-03,-9.794472509653362025e+00
-5.366278447756854530e-03,5.884249074810289507e-04,-9.788431089908327110e+00
6.289203801614772112e-03,-5.323428474630131912e-03,-9.799922455428461632e+00
8.643938191208183500e-04,4.550201718614539648e-03,-9.806630752914617943e+00
1.089907118178799761e-02,1.591709438303333260e-03,-9.792257963472909665e+00
5.785439905809348395e-03,-1.170919688006165880e-02,-9.791106025494254794e+00
-2.029230990971142307e-03,1.120493192387183451e-02,-9.786988112488245406e+00
4.241266317619923031e-03,-2.232826483813637845e-03,-9.784457493345591672e+00
4.753615015628811710e-03,3.935758226617356963e-03,-9.798493275044785733e+00
3.088970881799588987e-03,-4.490672476613247373e-03,-9.788659635138085235e+00
3.580803731332782552e-03,1.544029214354169111e-03,-9.792428004832183674e+00
-1.052899611518571610e-03,-2.488836172608727138e-03,-9.792693284541556409e+00
-2.240963619383536977e-03,-2.647856740140054795e-03,-9.794252957586373043e+00
-5.176592327535626051e-03,2.140464400844614788e-03,-9.790561229042694436e+00
-3.445163880145168337e-03,-6.293308058743964616e-03,-9.792764211404280772e+00
1.058369618432362068e-02,-3.730027012481751652e-03,-9.791690064130353477e+00
-1.743398490279091800e-03,2.331962759652216055e-03,-9.790679533534746071e+00
5.529497215848572927e-03,-2.563893706309633858e-03,-9.789416896135282542e+00
-4.393466571115023822e-04,-1.980186374639282423e-04,-9.800105113317369998e+00
-2.910976497221760525e-04,1.012727421258774636e-02,-9.791389835281085752e+00
-1.163635605118855734e-02,-3.323664155681933915e-05,-9.796540272263202453e+00
3.569817768353886461e-03,2.858180281780924210e-03,-9.802630299831394112e+00
6.289559461241545080e-03,-8.350183629028624932e-03,-9.796935751963260941e+00
6.169494759311120249e-03,8.718611319632865774e-04,-9.794607049332068271e+00
-3.807046805627116361e-03,-5.420975163130537476e-03,-9.797343712083378620e+00
2.571938870556728009e-04,1.452822110212993343e-03,-9.788624378178402807e+00
-5.831030312852482703e-03,-1.173426469806656929e-02,-9.800573184669158167e+00
1.642686175070957487e-03,6.061568607075250130e-03,-9.799257277773978814e+00
3.046256516162941606e-03,4.770653915217309624e-03,-9.799627812301991980e+00
3.591311545302496976e-03,-7.019104589663540240e-05,-9.789588549954071794e+00
1.647781452400276601e-03,-2.497413874873004747e-03,-9.793075993748583841e+00
-5.128060078152254023e-03,-1.537660717412125033e-04,-9.792385436838323187e+00
4.889859114737058268e-03,-6.258855333175419346e-03,-9.791685904127735540e+00
-6.007985220945445508e-03,9.063147449711494302e-03,-9.792083640541063616e+00
3.690727211428767706e-03,-3.757222548081188673e-03,-9.783254071040573763e+00
-4.934974670701815225e-03,1.960171497963581963e-03,-9.797720670722970482e+00
-1.078062249135107366e-03,5.879851131646868061e-03,-9.795354973050386604e+00
-5.847857040172221160e-03,-1.729673349496185504e-04,-9.791588521162507774e+00
1.386136542603347939e-03,-7.730782770759535034e-04,-9.789785996848479499e+00
6.330073941377318842e-04,1.659463011863423348e-03,-9.790435620205272471e+00
5.031389616506627693e-03,1.546013438540840956e-03,-9.788000518811569961e+00
-1.552566457142714323e-03,-1.250129437821319777e-03,-9.798614091939757742e+00
-3.360949908208447912e-03,4.363516432600879173e-03,-9.796755823239466920e+00
-7.415376094522448461e-03,-7.777685557773143105e-03,-9.794212244491911079e+00
7.613539185399416202e-03,2.075586834555961588e-03,-9.785249923518200887e+00
-5.159276474066062414e-03,5.827264178445441117e-03,-9.790406780619093752e+00
-1.889257688184407986e-03,-4.806816388145764875e-03,-9.790997051483326885e+00
-3.070967749025260186e-03,-8.793511925941032564e-03,-9.787238812710414848e+00
-5.769230249821414615e-03,2.337279442877423802e-03,-9.783097798111223042e+00
-4.863953868494265073e-03,3.004314668749230588e-03,-9.799031396617738920e+00
-3.261389180238816990e-04,3.131485742235932696e-03,-9.792455558760011058e+00
-1.020586682591238933e-03,-1.397989697783057336e-04,-9.796215387502204663e+00
5.552998553012767485e-03,5.442386373606004218e-03,-9.786749175101268960e+00
1.952621772002880981e-03,-5.095276585774027520e-03,-9.793938992817782463e+00
4.620259653962012622e-04,8.931775560155326074e-03,-9.805907804568304797e+00
4.974405833292893124e-04,1.052769097858574469e-02,-9.793743449892385655e+00
-3.351058584553634739e-03,2.694552162933689342e-03,-9.805049692790825944e+00
-2.213174616967799376e-03,-2.857402689715305257e-04,-9.801304288127948183e+00
-3.013338468275538092e-04,1.255563143052934854e-03,-9.800526888917666213e+00
1.183857833472431228e-03,3.366647395644851472e-03,-9.791567759950853045e+00
5.935168032152144009e-03,-6.131241929778979234e-04,-9.787166401895698087e+00
6.231941412172814498e-03,7.478201878855081017e-05,-9.797876411314852874e+00
-2.608160257424347456e-03,1.617154700279076467e-03,-9.791327527539460007e+00
-8.386918343419553362e-03,5.391345655447449432e-03,-9.798055178680550981e+00
-6.209812563179253767e-04,4.148254507937872843e-03,-9.793305788075061358e+00
3.761135281033683498e-04,1.078228962603570117e-02,-9.792117753571917049e+00
4.170799143653155551e-03,-2.442654168178990098e-04,-9.794830571264823149e+00
1.651868024933747471e-03,-3.615732296737778420e-03,-9.793908679867069367e+00
8.474299312250092343e-04,-8.044740504903821754e-03,-9.782759303034053389e+00
-8.830906049177093245e-06,-3.554876041264333746e-04,-9.791924688801634247e+00
-2.860878600772674522e-03,-6.403695586763197105e-03,-9.801483694946442782e+00
2.496728152927028821e-03,6.252783851477523511e-03,-9.793829119948847861e+00
8.738446560518074203e-04,1.131074388150450291e-03,-9.784376055867856081e+00
-6.693869492681077274e-05,-5.278176603603578453e-03,-9.796764091833924937e+00
-2.394556255265066838e-03,-6.352336105480365855e-03,-9.797690766378220673e+00
-3.069016643058695201e-03,-6.701598364632103608e-03,-9.787680301506897607e+00
6.871028874185352957e-03,5.210292713220458435e-03,-9.789015124004897928e+00
-4.370864358539147503e-04,-2.230527665630832514e-04,-9.795276674589128874e+00
-1.655950813998070500e-04,2.931603597140044083e-03,-9.785769609505521771e+00
-3.151240228664564311e-03,1.706939079078213361e-03,-9.795930711980657790e+00
1.319607425200019927e-03,-2.546091302582258187e-03,-9.791029430881263096e+00
4.535797336312135525e-03,-4.527554201053354994e-03,-9.786795806111491913e+00
5.154805828493621081e-04,-1.812034154693944413e-03,-9.793151283909798721e+00
5.021555876769095289e-04,5.428826268287129803e-03,-9.797741423844581021e+00
-1.206874814962516189e-02,-4.378766895044668346e-04,-9.801901629866090815e+00
-2.687144845609485896e-03,7.382291469840128201e-04,-9.797346805101618372e+00
1.971491022689253220e-04,-3.544862923699725835e-03,-9.789145053510614147e+00
7.207056762358497390e-03,2.335684230612785576e-03,-9.796230296176894115e+00
5.323945621688064810e-03,2.703444323680056875e-03,-9.795207593045820005e+00
-4.352602477548890743e-03,4.944805317376292815e-03,-9.786417849412346825e+00
-6.486947464024332699e-03,3.328386387076874477e-03,-9.788785110886029983e+00
8.476533911830529122e-03,-1.873594891013557334e-03,-9.795904745365808353e+00
-5.666405614769019772e-03,1.995038381692938734e-03,-9.800042510607188007e+00
-5.687332079825219155e-03,-7.022209234136386671e-04,-9.795489561543087476e+00
-3.082533483631658740e-03,-2.205266371439239172e-03,-9.797381302118122193e+00
1.307328292746332346e-02,2.044322029883570771e-03,-9.794533224875584310e+00
3.125766310249918079e-03,-5.125379114615698228e-03,-9.797157375060146833e+00
-2.257282666981011866e-03,-3.977039828423613484e-03,-9.793387606185081751e+00
5.693469843671796968e-03,-1.140702578094661499e-03,-9.790704127624811903e+00
-4.032089071834634580e-03,4.431545629023841970e-03,-9.787696967738316545e+00
-3.416311869496853858e-03,5.528800227746118352e-03,-9.791425300161646916e+00
5.534566128544569398e-03,8.815109211170398668e-03,-9.804284871485908326e+00
2.352153566872328214e-03,4.201885047813701604e-03,-9.792087320868507305e+00
2.157779957319137885e-03,2.592540240704394299e-03,-9.792970452761000644e+00
2.453352928451469576e-03,-9.397004616481661110e-04,-9.788638941616939704e+00
-5.255587623931534842e-03,1.175509022962328148e-03,-9.792487138172308647e+00
-1.006505093182446901e-02,5.695909015588797482e-03,-9.798724257028609941e+00
4.993481461266709859e-03,-1.179343200655890572e-03,-9.794892556095282643e+00
-7.086626612275992443e-04,2.776180692367373991e-03,-9.793240954258498832e+00
5.378104924903067199e-03,6.452817664832701276e-04,-9.798344884978433811e+00
9.942260560299835681e-04,-5.369136030533294690e-04,-9.795183781522252886e+00
1.004405033744937281e-02,-4.131707091395931709e-03,-9.808710796290064593e+00
-1.007519857470886356e-04,5.013559183158496947e-03,-9.792613470739564008e+00
-1.301542758129255054e-03,5.276218622402177594e-03,-9.796919502861779705e+00
-1.522416457732785229e-03,1.911675990309579182e-03,-9.800314851806282590e+00
3.122441248555941559e-03,-2.758934815343321934e-04,-9.795003668581410139e+00
-1.048576045251729469e-02,-3.657492789813560508e-03,-9.795017224905661735e+00
-5.939138395241404765e-03,-2.973638437440065743e-03,-9.797014801348684188e+00
-2.578347465769008362e-03,3.454135023691840695e-03,-9.791004138729132222e+00
1.029161387512878174e-02,7.910980998691747104e-03,-9.804860061147550709e+00
-6.121820374597331492e-03,-1.397639341598017016e-04,-9.790458366268623536e+00
7.037235799972321217e-03,4.450106678185199519e-03,-9.788896770017387894e+00
-3.624720795735034834e-03,-8.600486541814719027e-03,-9.788591718515673890e+00
2.340476877637682335e-03,-9.866335635370001786e-03,-9.796571233852375826e+00
-6.373869398977844575e-03,-1.645371374850340294e-03,-9.788354692342396746e+00
-6.949015977580143798e-03,2.029219012251957770e-03,-9.788951789946857218e+00
-2.467923426432591400e-03,-4.876027624837826237e-03,-9.791163521729757235e+00
-3.147539429084929025e-03,8.125881485902791690e-03,-9.794551828559269424e+00
1.502992248371957853e-03,2.285099938959560782e-03,-9.797894990183513286e+00
-2.756319559435251726e-03,-3.486029129999491070e-03,-9.792611136202481248e+00
-4.839312539324379012e-04,1.003047381256803004e-02,-9.795962919122967349e+00
1.702306629474902326e-03,2.340571255070427077e-03,-9.795603232734173105e+00
3.234546056503872797e-03,-1.390198819519585047e-03,-9.791077256588753386e+00
-5.744998388504548269e-03,-2.325992616889468144e-03,-9.794858834224847044e+00
-4.228885677233115876e-03,7.624300148362748823e-03,-9.791922340747760245e+00
-3.606254946749417722e-03,3.037554962225770885e-03,-9.783870998378713324e+00
-1.155971684841500344e-03,6.155196941243947298e-03,-9.799592668143873198e+00
5.926743116440527301e-03,-1.437082099354562454e-03,-9.795110216956489424e+00
6.321275581943432142e-03,8.135368752891123170e-03,-9.790855948490273519e+00
-3.969549828957821824e-03,-5.856605882840505532e-03,-9.795953734250122835e+00
4.240480336840060649e-03,-6.396813944592577225e-03,-9.787288611219642220e+00
1.229592693529881582e-03,3.831297683427396707e-03,-9.785563671200883107e+00
1.072440126813204581e-02,3.487143639641279453e-03,-9.791334418123536665e+00
-7.338699835098370407e-03,-6.352358915989082117e-03,-9.795929756048924020e+00
2.267206754027376037e-03,3.591744785000303163e-04,-9.793905297001899157e+00
-1.646573446864626599e-03,-4.778618921512625857e-03,-9.799855450767619658e+00
-1.677681122508919553e-03,-1.318894430585619820e-03,-9.795158894091047230e+00
2.469484001000991479e-03,5.539254796775686411e-04,-9.793488629499321974e+00
3.500052057025677607e-03,8.787835854084912954e-03,-9.794281203177876094e+00
-6.157794361092927549e-03,9.716964656338047956e-03,-9.789713534451841781e+00
-1.139168478262556376e-03,-3.139739108251525480e-04,-9.791319230907923554e+00
8.086435402232261278e-04,-4.220763874631864102e-03,-9.779673285933322191e+00
-2.051062386141106592e-04,1.079182175223777473e-03,-9.791742021239103977e+00
-5.030746142530830890e-03,-1.124999450795936828e-03,-9.798171281600549065e+00
1.620143556273776495e-03,2.379627061792281405e-03,-9.801239627413835365e+00
-5.147629328506855319e-03,3.829670333106208278e-03,-9.794950411020822756e+00
8.711101692696933407e-03,5.693334137926495293e-03,-9.789965940652118448e+00
5.752425578922312245e-03,3.245540012311746558e-03,-9.793605717747288608e+00
1.373570432703112229e-03,-1.691088972474822120e-03,-9.795881941120633485e+00
-6.416261253388343654e-03,-1.751724829716440812e-03,-9.801828749574918120e+00
-6.300667652150857868e-03,8.375869339561683655e-03,-9.796452684702705582e+00
1.262406642944107014e-03,-1.431993489806375041e-03,-9.790215653168424126e+00
-3.810216130964899032e-03,-1.602575664476534956e-03,-9.789639940816295294e+00
-6.804864962920673631e-03,3.816389740475562161e-04,-9.796169997960310738e+00
2.776700550227811232e-03,-7.202019509804301681e-03,-9.789699104475193536e+00
8.095553281138749557e-03,7.559186268177661358e-03,-9.795097091920846211e+00
-8.778301991719868191e-03,-3.631208406233290414e-03,-9.802394781182076855e+00
-3.145662259752774002e-03,-3.419766591237812046e-03,-9.798173129946063042e+00
1.838992786538001844e-03,1.229623109596904035e-03,-9.797210924944215193e+00
3.912796395206134814e-03,2.258094482080291471e-03,-9.791349436162075648e+00
-1.314457739102863586e-02,-7.693065314317404368e-03,-9.788721900000698639e+00
-4.337058248340987070e-03,-2.292032046629867773e-03,-9.785959291464731535e+00
-3.228924346287177956e-03,-6.820606921312800247e-03,-9.797188748121225643e+00
-4.164302429269936372e-03,1.799829495379774496e-03,-9.800884678607548750e+00
-4.601316514993979145e-03,-2.092214650743486233e-03,-9.796708897197518695e+00
1.007035207815510551e-03,-3.724910874500055816e-03,-9.798221999129260951e+00
-2.177610189567923821e-03,1.022202064292817647e-03,-9.794316246497782430e+00
-8.301355039332571767e-03,4.063543200916679317e-03,-9.790062376755358287e+00
2.095915281158549498e-02,6.274359958640362590e-03,-9.793387040177089276e+00
-2.852988448049981977e-03,1.748070509738274382e-03,-9.794943298236351126e+00
1.818296321561136287e-03,-2.541376000758533565e-03,-9.792475929460897177e+00
7.593316072907143992e-03,-6.601087803897343065e-03,-9.790741027071081959e+00
-2.630607549682244251e-03,-5.417195090366945347e-03,-9.804823760209947281e+00
-8.346888794057889544e-04,-2.012156904001133578e-04,-9.788080983547409630e+00
1.005688633763112717e-02,-8.567643117414873184e-04,-9.796638313556984556e+00
-3.395120957326590565e-03,1.224062031615525889e-03,-9.800511085899971775e+00
-9.007295099764544080e-03,2.944689769882767247e-03,-9.793367371391978438e+00
-4.761518386519619436e-03,-1.349653999233184180e-03,-9.795827537411216923e+00
-1.409376922974577570e-03,5.184134558636537167e-03,-9.801700784711647074e+00
-8.546214474013109745e-06,2.995583030004398718e-03,-9.792342920322623101e+00
-5.643779388141868282e-03,9.211642593253068986e-03,-9.797106035476600638e+00
-8.807906449999765644e-03,5.737258406310460392e-03,-9.790788686676997088e+00
6.413568738139238667e-03,-3.692531143066434332e-03,-9.790856681066738787e+00
5.041676523751045282e-03,1.286494716338098046e-02,-9.789414798933108841e+00
-2.361634803557126263e-03,4.248968275701134334e-03,-9.792674070497957572e+00
-5.450520555354565651e-03,-9.190581550381162271e-03,-9.781901655721201294e+00
2.273742717562813025e-03,-6.695074669922110484e-03,-9.790454525490703830e+00
9.173998128264820688e-04,-4.890171260758073568e-04,-9.797932822537148922e+00
2.975604512228166749e-03,5.399671739336784704e-04,-9.796732492793626790e+00
-5.068694169638777308e-03,6.374070870076617434e-03,-9.789198203784788888e+00
-3.300580774205682643e-03,-5.286788917958387853e-03,-9.784767581238234868e+00
-8.179732173333507592e-03,-1.126067121034939403e-02,-9.794813175734779165e+00
1.611448880130699358e-03,-5.270751685584361586e-03,-9.791342409763439392e+00
-4.876731914246375255e-03,5.788809660918730129e-03,-9.793916544812530489e+00
-3.903574743472142290e-03,2.519036720599455211e-03,-9.796820413449911058e+00
-3.305001957619718884e-03,1.121956998470766262e-03,-9.794683425059783843e+00
7.571964647316568008e-03,9.920329297482067057e-04,-9.794789068154884148e+00
-5.230433376982471759e-03,-4.659365406641522052e-03,-9.798959913007150746e+00
5.692400755525860861e-03,1.332487770958325430e-03,-9.797466106051498258e+00
-4.877110086935231188e-03,4.502465586519587980e-04,-9.796164881951378689e+00
-9.768180720884178745e-04,-2.184408149278645097e-03,-9.795367639413973038e+00
3.713858341372781174e-03,3.354522112782440044e-03,-9.793004114134916449e+00
2.854469405189650165e-03,-8.129421302885891454e-04,-9.796945923570699932e+00
2.077777296893464510e-03,1.011155939953644126e-03,-9.793350665685251144e+00
6.042100298835460619e-03,9.281677310426741934e-03,-9.788421130176764962e+00
-7.594799072796430510e-03,-9.445765579414658678e-03,-9.791508393854833514e+00
-3.229128880529665187e-03,2.405900201222813356e-04,-9.793446411619761705e+00
-9.605287710424691844e-03,8.532920240311736050e-04,-9.784900522143342272e+00
4.851087241186055957e-03,-2.297497139169640129e-03,-9.792102777928308299e+00
-2.745693577747472264e-03,2.753969787661271484e-03,-9.798826516699660871e+00
3.728022827012294690e-03,-2.706311986956525927e-03,-9.793573171308329606e+00
1.083820816477379509e-03,1.087005044771014849e-03,-9.793741540757313402e+00
-5.646672673446332703e-03,5.750593857850975175e-03,-9.791535354934808311e+00
-7.997684080091212438e-04,3.484300748700723451e-03,-9.796435541257686452e+00
-6.973440228616033243e-03,-5.581856771415490137e-03,-9.790301789507605434e+00
-4.248196617211119110e-03,-5.246885360222388120e-03,-9.799633700444561057e+00
-2.253682884168604125e-03,2.509673280791032812e-03,-9.792791834813474594e+00
-6.029800866251866336e-03,5.965853063984494914e-03,-9.801588092949945263e+00
-3.997588190181599471e-03,6.675058825171381952e-03,-9.782350245460905924e+00
-4.499352093875175863e-05,-3.965407455349805608e-04,-9.802479125025042705e+00
2.979859667777159157e-03,5.715320707026197433e-03,-9.781827160289978451e+00
-2.312694115453946004e-03,-5.869710038397810310e-03,-9.796091055499042355e+00
2.027717577042457715e-03,-3.523680367297644511e-04,-9.791827930486725506e+00
-2.097101641261904341e-03,-9.570293990043715962e-03,-9.789419464543493987e+00
1.090878168605395582e-04,5.357370581093144277e-03,-9.793158931826637215e+00
2.832857717555282377e-03,3.872726904064874125e-03,-9.787082380823102667e+00
-7.421235527509887318e-03,-6.764300997619773249e-03,-9.790782987036671159e+00
1.971105822085802550e-03,6.817418463809885899e-03,-9.791977084601263925e+00
1.022052007296734601e-02,-1.408060753810403245e-03,-9.787123464763871183e+00
7.171605884131555461e-03,-8.621754489973888422e-03,-9.786499351714656569e+00
3.002065257030406449e-03,1.124849292505003540e-03,-9.794321179974637914e+00
1.157814975739594743e-02,7.354598289405689902e-03,-9.790891338544772893e+00
-1.260642804797901684e-03,7.829780618993843755e-03,-9.786809189366707074e+00
6.997089600390819265e-03,4.901685843212026487e-03,-9.790324919679042281e+00
3.358501934962201257e-03,-6.336471514598581399e-03,-9.791352246531031867e+00
-2.055903703201336988e-03,-6.594526853039944748e-04,-9.796752328047942271e+00
-3.597056903314612732e-03,-5.983481942989960986e-03,-9.796166235002653266e+00
2.468390332347995472e-03,2.165827048715162056e-03,-9.787260121339409480e+00
1.421379001996574956e-03,-1.766833337378918709e-05,-9.798989095121772408e+00
3.539907905710718353e-03,-2.972963095126001168e-03,-9.797215706506037236e+00
2.858028480510810265e-03,2.732569105860225872e-04,-9.785574782428405172e+00
-2.074263419472826067e-03,1.996962399145897019e-03,-9.802117058782608083e+00
2.012961527295861232e-03,-8.751315298658694092e-03,-9.801402125443056335e+00
2.343862413574536539e-03,4.675847107313717277e-03,-9.801118152132884731e+00
2.267443387131076390e-03,-9.901346210816766927e-04,-9.785027425709001747e+00
1.962726094129334242e-03,5.093008443214932200e-03,-9.802408523284730890e+00
2.747550347988788038e-03,-1.073955345479899164e-03,-9.794133885099785886e+00
-1.765423597626814478e-03,9.214443440304661117e-04,-9.795721165043998369e+00
-1.707642019165114692e-03,5.434750940199341469e-03,-9.791001671006519302e+00
-1.309862257683517064e-02,-2.628087130075645113e-04,-9.799496509532534816e+00
-5.878386688028961263e-03,-1.613693795000774658e-03,-9.791848268659620658e+00
-1.852261367838695008e-04,-8.079827870841944926e-03,-9.799728316494761060e+00
5.679717508252045410e-03,-5.751189049257799312e-04,-9.793370321473458873e+00
-3.405132757944640161e-03,-8.811819682455399733e-03,-9.799398586854698223e+00
2.998753336537818065e-04,-2.094861942585564667e-03,-9.797893268201196548e+00
7.525232754510937858e-03,1.230795744828521582e-02,-9.796492519646141872e+00
-1.619701126809569222e-03,-1.227549345554168701e-03,-9.788840392606031671e+00
-5.538652708939163262e-03,1.198678530664431131e-03,-9.788304108613310461e+00
-5.795394644942552208e-03,1.015556949933951909e-02,-9.792538220992712539e+00
3.129474094096624734e-04,-7.143699111437890699e-04,-9.799825268057869465e+00
-5.068543589470613821e-03,-1.499391017760648296e-03,-9.792773330882912575e+00
1.859856164770469847e-03,-5.662259402348661548e-03,-9.789595258869178807e+00
1.265897149525982077e-03,-5.138892992605772689e-03,-9.794687861347625812e+00
-4.805577884555394105e-04,2.162684590924387334e-03,-9.797035585592295703e+00
-3.954125823560339348e-04,1.163681527535785198e-03,-9.799014871916400082e+00
-8.233110020080303820e-03,6.826176751838229466e-03,-9.793722069161040267e+00
-2.207530158524012142e-03,-1.017421827052169409e-02,-9.794696531894610203e+00
9.544283843783938097e-04,8.505369327830185344e-03,-9.794944790744757768e+00
-1.584775890682144864e-03,-2.252274516724107531e-05,-9.796750364763909147e+00
1.135761920977761607e-03,-1.639403733171574881e-03,-9.788088996784216178e+00
-5.040404359947207738e-04,-2.171086533462265270e-03,-9.793973867328297445e+00
7.581942704476563391e-03,-1.435904098213409627e-03,-9.793979916708023481e+00
-2.044480244785494821e-03,5.252021781214424694e-03,-9.784497974703404211e+00
-5.606602311520308274e-04,-2.368652824845822891e-03,-9.794970741066043374e+00
1.096687514030340481e-03,-4.174459811185652551e-04,-9.799343996904683607e+00
-8.125185711153228366e-03,8.286630156855731219e-03,-9.801585452532124876e+00
2.626486732376665315e-03,-2.745766017071334976e-03,-9.786803856236783616e+00
-4.837359359819337797e-03,-3.530189090363187402e-03,-9.793089029914780141e+00
-1.580198858424355359e-03,3.582952117693105620e-03,-9.804720366711960011e+00
-5.903276587225275620e-04,1.664558505756522826e-03,-9.790313896032056817e+00
1.485061998657271655e-03,-6.860905914657621819e-03,-9.801130134693746498e+00
-4.766645117237248465e-03,4.366447241557665226e-03,-9.792246950899812674e+00
-4.984193066562977829e-03,-4.980209392647870145e-03,-9.793184107577280528e+00
3.266408562383992398e-03,6.003594613452674193e-03,-9.792252305019545133e+00
6.348551001763165155e-03,6.592575658675137694e-04,-9.792375651084810784e+00
3.273879281541661451e-03,-3.722891040533758081e-03,-9.789798784259664544e+00
9.106857640789995604e-04,-3.234043610947471246e-03,-9.798293549937499236e+00
-4.618163298421697725e-03,1.457514033125104471e-03,-9.786325485013874115e+00
-5.047870713468574893e-04,-3.320799459326654983e-03,-9.799048130184777605e+00
-1.002055474611596685e-02,-1.071784470503660269e-02,-9.796217392955524517e+00
-3.079019883443453488e-03,-1.394860709206549977e-03,-9.796319732378142575e+00
-5.562477255264991136e-03,-3.088141820691633118e-03,-9.792003791456066253e+00
-2.423289846371510983e-03,-8.136992131561730270e-04,-9.792188209742231919e+00
-7.581867775061243431e-03,6.809573301349735285e-03,-9.791760759589536178e+00
-2.222497321682370827e-06,-2.467686303206370786e-03,-9.792727981094818901e+00
6.473214398650803045e-03,-4.651149911306267683e-03,-9.790980044801681714e+00
-5.306005101252900084e-03,-4.692876160393175643e-03,-9.791701638588648393e+00
-4.201149497164785411e-03,-2.253722573499418631e-03,-9.797748888769575615e+00
5.805424202299337005e-03,1.217902112573338545e-03,-9.780431506866596791e+00
6.129953678228680300e-03,4.087704555695447287e-03,-9.796671043881245211e+00
-3.094020152414584269e-03,8.437606458560703571e-03,-9.800157622135124313e+00
-4.699357108112718791e-03,2.855930485901635348e-03,-9.795925000565247842e+00
5.100601514027523417e-03,1.790691410737540621e-03,-9.792521303608744176e+00
9.082238616490569821e-03,1.910079785187923217e-03,-9.787438236044435413e+00
-2.024459116712170464e-03,-1.602038612574583796e-03,-9.799221630652439785e+00
7.921199596098387960e-03,4.142319269556185742e-03,-9.795903120689409604e+00
-4.365397385918249641e-03,3.724920875659987283e-03,-9.794761331107419977e+00
1.085207987031339399e-03,-1.236223627984325618e-03,-9.795155807872164999e+00
-4.324651289507605925e-03,1.021296133207819437e-03,-9.796179100530409301e+00
4.586791552108922926e-04,-9.966476810603971254e-04,-9.794209526904149143e+00
-2.397140755524661791e-03,-2.247270346718767571e-04,-9.795096978914672903e+00
-2.654713631717642557e-03,7.636433241526269233e-03,-9.796923346306254388e+00
3.065859979432698779e-03,-3.102072461014362525e-03,-9.794352630462395126e+00
-3.673895491639987015e-04,-1.583366990575583479e-03,-9.794169997519649229e+00
2.208366261692003372e-03,8.896932345608952672e-03,-9.793497939899062033e+00
1.996620521408178084e-03,6.228571563606474445e-03,-9.794100718251673499e+00
-1.357629157009599720e-02,3.996835693017351636e-03,-9.798216963755185915e+00
-1.976662408815764731e-04,-5.152191452411145414e-03,-9.805506560182713827e+00
1.440796607668011660e-02,-9.585137337485452429e-04,-9.792891058252902070e+00
-9.587058251699665315e-03,8.688026974712247715e-04,-9.782887152405619346e+00
4.378290661966607682e-04,-2.459035636503457620e-03,-9.789821671166675898e+00
-5.415741278884378222e-03,-6.949213271033955787e-03,-9.795747515926743532e+00
9.042212065673094559e-03,9.919028335826137605e-04,-9.792953980365510347e+00
-6.973991931153996704e-04,-4.231469892985947195e-03,-9.792186425760252888e+00
5.684597623538961350e-03,2.635340334732688954e-03,-9.791422706981318669e+00
1.607553978721032450e-03,1.326347023111598645e-03,-9.785240405704005440e+00
4.495654839825815631e-03,-7.739069069542831025e-03,-9.794478555059818348e+00
-5.729802585276741120e-03,-7.983141097717397563e-03,-9.795689292582128616e+00
7.745195240093919430e-03,6.723862375946322405e-03,-9.789306141186512988e+00
-1.912943263616167155e-03,5.995995535872271527e-03,-9.804122604034922972e+00
-4.782067221049922379e-03,3.430553497727039085e-03,-9.795133834722609123e+00
-8.302476205353133409e-03,7.395261969313374553e-03,-9.789513882110403742e+00
-1.765123637716296172e-03,-4.019857883956510364e-03,-9.787016442423173146e+00
-4.718468351801387468e-03,-2.927922984586273092e-03,-9.794460496750348355e+00
-2.364312363107360076e-03,-8.213515008373572027e-03,-9.791581694785117307e+00
2.962574372139982828e-03,-1.646912010955635646e-03,-9.791590228701201326e+00
1.356479526413471469e-03,3.957922206662961161e-04,-9.798202362795604969e+00
-6.607910257416559248e-03,-7.692747988721918354e-04,-9.795158867749835352e+00
3.929135048079351530e-03,9.252611137721148066e-04,-9.789739236030390757e+00
7.190504171373473044e-03,-3.567578214537818135e-04,-9.797905627990257216e+00
2.855486313657065994e-03,-3.390904296849918051e-03,-9.787680979553060823e+00
-2.071029729105281793e-04,1.045355006938818209e-03,-9.794438152640355000e+00
-3.882680631932922772e-04,1.936811698553790855e-03,-9.786222775558231390e+00
-5.840544234281338717e-03,-8.479139389787192227e-03,-9.795404128458214288e+00
1.141702183954619414e-02,-4.827530442248965763e-03,-9.798315524184342706e+00
4.259846151028904952e-03,-1.004258371858942310e-02,-9.798059214111640713e+00
