gyro_x (deg/s),gyro_y (deg/s),gyro_z (deg/s)
1.503794545589019066e-02,3.728950350151650356e-02,-6.296671190973854304e-02
3.802143937142629659e-02,6.000973687639492293e-02,6.453237302872019687e-02
2.391644653334721801e-02,-5.212566268752052284e-02,-2.108798495574189247e-02
5.002045534896980977e-02,5.263148554131291679e-04,7.984661554223801416e-02
-1.512934596037887255e-02,-7.662807392378307575e-03,1.668031698844369207e-02
1.479834665438346519e-01,7.162895368836802446e-02,1.599131144286668887e-02
4.146786928747153711e-02,-5.759063669742255087e-02,7.109266590731569933e-03
5.854903243295529053e-02,2.773739140858427071e-02,1.560784851374936479e-02
1.360980227091419369e-03,-6.822814929221883429e-02,5.634784180253898066e-03
2.044260883547677904e-02,-7.725692654772214028e-03,5.065517252588794261e-02
6.631666252384263438e-02,1.031178156004606411e-02,5.653243064587969158e-03
6.314654321643359269e-02,1.193920549664605722e-02,-1.287078760433436539e-02
2.333374268853245781e-02,1.001981458464495794e-01,-1.895447116603999824e-02
-4.707025756899149704e-02,3.391450881832541297e-03,-2.616995664663337648e-02
-5.792016209944442912e-02,-4.887241818836904599e-04,2.744167076831365015e-02
-1.762004193001475566e-02,-2.117208302169205913e-02,-2.542167038675180457e-02
1.496205033381119674e-02,3.924423594942896831e-02,-2.525671914527225642e-02
-4.587176832378203617e-02,8.537057222491510611e-02,-5.359998770292218051e-02
-1.678357480015545827e-02,2.658923860189862237e-02,5.846559375562462857e-02
5.925547331371256582e-03,5.384735178576188427e-03,-1.784082401701624077e-02
-3.855407532696217277e-02,9.204532367184645181e-02,-9.176917999370083623e-02
-9.447683054760215582e-03,6.948240258965853594e-03,6.228834013241475037e-02
4.617750877289399786e-02,-2.970010865549196216e-02,-3.600056136827697872e-02
-1.691417041301326515e-02,-2.806786978947302044e-02,-4.085419397466785729e-02
3.094151088721578194e-02,-3.923728581657792008e-02,3.379770440629868006e-02
-1.922106139579999803e-02,-1.126137669813272596e-01,-2.817199344420668813e-02
1.562177445530057995e-02,2.687258012687768899e-02,-1.103010828350767941e-03
1.855395377432107057e-02,1.569868438211202005e-02,-8.146748570785558585e-02
2.488162258626334597e-02,-3.904081044994853981e-03,-1.342739253692355229e-02
1.677938016532272078e-02,5.477133557670031683e-02,-2.619865495137949432e-02
6.062985071315245972e-02,2.716985634789957985e-02,-6.079228334859036742e-02
6.740025063929970528e-02,-5.309343852598698288e-02,5.351343585545916687e-02
-3.835531626600377497e-02,-7.070071903615485209e-03,3.704276196833807683e-02
-1.051948935769543569e-02,-1.514995921062752514e-02,-4.231128384973579376e-02
-1.401407993065487308e-02,-2.107843168183970092e-02,-1.372669710654325463e-02
5.929553538964977416e-02,2.629366625881602790e-03,-9.712806585366379544e-03
3.540323785904518281e-03,-4.238281558077728467e-02,-4.922605671937575061e-02
-1.206350448385369936e-02,3.220225651141814249e-02,-2.628405423712895997e-02
-2.107876617721631332e-02,-1.979234797992289463e-02,4.565151987920408605e-02
1.137055757747978957e-02,5.040261210632353966e-02,-8.239753471012263575e-02
6.198992927969023542e-02,-3.747945059145285380e-03,-1.559897765857215339e-02
2.877102042448265520e-02,-2.751600388116340334e-02,7.394402328900666690e-03
-1.362499154942390864e-02,5.673657930222394952e-02,1.719871734843956765e-02
4.315657776310917113e-03,7.644803457077940789e-02,-3.751498697025450299e-04
-6.712501333716658358e-02,1.945809515433193429e-02,-2.886879430182286502e-02
-3.943689987321672558e-02,1.279122061205407220e-03,-4.428000259892886370e-02
-1.716340657432346636e-03,3.663869451788870357e-02,-4.849422881751469516e-02
-2.338760107379768763e-02,-3.069047693134041924e-02,5.799511874444802234e-02
8.216797999599888269e-02,2.626252995142668023e-02,-4.323461238609877660e-02
6.393467399687574604e-02,2.859468437118826978e-02,1.831633124531585610e-02
2.224671529442630302e-02,-1.844538632728815256e-02,2.315042632711292441e-03
4.509990577349090590e-02,-1.108238746020999421e-02,-1.502320542903436487e-02
-6.683692397640665639e-02,2.969428889738310803e-02,-5.050963463162092687e-02
-2.316939165785344285e-03,4.809283282515518926e-02,-3.619046734387556391e-02
7.487818999161184597e-03,3.372215660262815190e-02,-1.702558359841337479e-02
7.751216882645711737e-02,7.804136445469988734e-03,3.094755271613271533e-02
-3.092552653711752933e-02,-1.794495732403096969e-02,7.259946224476206134e-02
-4.618472909048337155e-02,-1.366422938532834211e-02,-3.104041624161150981e-02
-1.788364252017247968e-02,1.590509883897060078e-02,6.513186108302623789e-02
3.115309271424698476e-02,-7.755711219354495707e-03,-2.543194020200406635e-02
-8.204692962462919667e-03,1.864016886352254029e-02,-3.878382924289405526e-03
-4.095378225908477901e-03,-3.124739611231965291e-03,1.228524861638089979e-02
5.059477998136916593e-03,5.789200381370331050e-02,-5.438322918355361496e-02
6.429054826535969547e-02,-9.997610187951755378e-02,4.272660901221043278e-02
1.926596274237735162e-02,2.554723571739135612e-02,1.263709032245532646e-02
9.121962727325501341e-02,1.863669496691801319e-02,3.099654472925949047e-02
-1.957934558294769853e-02,4.337680063712297945e-02,-5.519896963869974638e-02
2.551856747409009599e-02,-5.223453600576561523e-02,7.160720564232099516e-02
-5.787792200919622022e-04,1.332361925197041684e-02,-6.834181818460012547e-02
-3.774599001488801453e-02,6.095582595623270754e-03,-8.195282631639879203e-03
-1.648484258992936533e-02,-5.073265845238397048e-04,2.859268157952619613e-02
-4.705790666761187771e-04,-1.025218738330077872e-01,-9.580798279148393382e-02
5.090446664785178849e-02,9.880294121131188989e-02,-4.572933518309341833e-02
-1.606613364290450027e-02,-7.163539186039736585e-03,-3.954466105989050233e-03
4.863517999334535796e-02,-3.361842350702538840e-02,6.696086977418191054e-03
-7.045425311687657233e-02,-1.227356194544202035e-02,3.714982860407910897e-02
-1.359197865694338099e-02,-7.392113761096019177e-03,-4.551947059263999201e-02
-2.486356799748929217e-02,2.210786984577868888e-02,-1.025028735186139491e-03
1.628559020745278321e-02,-5.521830627081513593e-02,3.593979034336473866e-02
8.276806698294349174e-02,8.538410762356514038e-04,-2.384272881535089497e-02
-2.925690859420626219e-02,8.556404634848921442e-02,2.561334705620876145e-03
6.295390312968265900e-02,-3.252099986382070429e-02,-8.822341065903847868e-02
2.539604402880458328e-02,-5.778947456354265738e-02,-1.672508966442635275e-02
5.737638058083515194e-03,1.706868642379930426e-02,-2.615146838315368129e-03
2.232179253205503200e-02,5.345483517480386498e-03,8.521086963728651334e-03
-4.848402931377581576e-02,-1.685958578503011021e-02,-3.450766409335382506e-02
2.102646582582336915e-02,-1.837138172329656413e-02,-4.507931535678905838e-02
1.778157141977614042e-02,-3.885975906889636844e-02,-6.668822469275295650e-02
3.498262655798091425e-02,6.670888756741148728e-02,-3.770327159539088591e-02
1.067264251544643335e-02,3.591893871989683407e-02,-2.590103749757067045e-02
-1.630360157919967176e-02,-4.764974807044274757e-02,2.216035458697465307e-02
-3.879489192553003257e-02,1.716482393829602340e-02,-1.078553325160327807e-02
-8.761109636317641891e-02,-2.687728304739125593e-02,-3.894174574480697201e-03
6.335393865738983468e-04,-3.298297097761669627e-02,8.826109808903409570e-02
5.039346224393823938e-03,5.775436282610690170e-03,3.360795188254266097e-02
-1.359289187903424227e-02,4.097550274204679599e-02,1.155689681730975166e-02
-3.467569007804952724e-02,1.595274706288433639e-02,-1.005629014908215012e-02
-7.539291992485497480e-03,-1.827633351841973994e-02,2.452821836025686000e-02
-4.595100447673906158e-03,1.125592888082277421e-01,-3.575910315488273900e-02
-6.495770036428155300e-03,1.200480222415862717e-03,-3.839059241984082299e-02
-7.273492154071317661e-02,3.007582975986284116e-02,-1.261450998292940181e-03
-4.365917927179342739e-02,-2.901041010378875920e-02,-1.376829568173005593e-02
2.469753348565888879e-02,-5.084739430505445801e-02,-3.204294902122431510e-02
1.948065394257587554e-02,1.858816354020311271e-02,-6.868670590887442085e-02
-5.009426829787892721e-02,-4.214583134046029356e-02,-3.731844386251781387e-02
9.642881014388411665e-02,-1.773223412520403761e-02,1.575038337862405546e-03
3.335377245878178715e-02,3.947194665712069200e-02,-9.825993325333797976e-03
2.241155610101642007e-02,-3.976193982319896347e-02,7.599175554340881211e-02
3.144258089798478845e-02,8.486763120613523975e-03,-1.508376111718783170e-02
5.905905886068812949e-02,7.080850466569791994e-03,-9.161237566963157872e-03
5.147775171263673649e-02,-1.593106522691686844e-02,1.077012945665013939e-02
7.056273188870418323e-02,8.997286151627571782e-02,-3.253962455644702351e-02
1.561994705103532041e-02,2.907002945310546357e-02,1.200307585181564773e-02
1.091756136426290935e-01,6.027486358377356218e-02,1.136049823160813904e-02
2.474967616667811746e-02,4.489461409192626457e-02,3.927679262264039545e-02
-1.316742976892994708e-02,6.697215766428116224e-02,-7.332454657524407893e-02
2.224807982710520771e-02,-1.793478216412392259e-02,-6.190915712551296052e-02
-1.066250888014073049e-02,3.818723797299222039e-02,-1.191423142531994502e-03
-1.053677600327287273e-02,-7.639373556000711267e-03,-1.755038880817265737e-02
3.359137768196863993e-02,3.739566975847930658e-02,-1.031391760415775218e-02
6.601126473797766514e-02,4.044730340667489904e-02,3.525713849435287151e-02
-1.010579274043269318e-02,-2.889555615567034746e-02,1.709409745522610588e-02
5.182578897001290270e-03,-5.323060270006447440e-04,-5.027466526751901699e-02
-3.361137165148467276e-02,2.022445332769688686e-02,-5.598666376762204827e-02
-4.253263183719945689e-02,7.433579862363965014e-03,1.690523658445368393e-02
-4.625373595691663342e-02,1.730969265230307766e-02,-1.533035622043371279e-02
-2.667404805054292977e-02,-5.344887519249615776e-02,-9.598567372963629288e-03
1.870492424096874967e-02,2.905139747272572279e-02,-2.320620823474825109e-02
8.344574408954068094e-04,7.796483138259090173e-02,9.941356534439951820e-02
4.777563988771037912e-02,-5.985399324072333826e-02,-2.589718705442137572e-02
-4.178196884936551114e-02,-1.013944362066364693e-02,-4.594475830477379175e-02
-3.056856755280581289e-02,-7.799686024932953043e-02,-3.825596783066560758e-02
2.631133018639351256e-02,3.342052125205743646e-03,4.374474633003698487e-02
-5.419204817868654434e-02,-4.312406974280187655e-02,-2.962401293872948902e-03
1.376638902170796395e-02,3.263981143441225391e-02,-1.985681744031454407e-02
-3.412869855516953432e-02,1.611469404937087430e-02,-1.552742716411434527e-02
4.994553127088765393e-02,-2.610403456499760591e-03,-8.921302696901233648e-03
-4.991847255958835328e-02,-9.043027515733129129e-02,2.662369792409860492e-02
1.277982839343556366e-02,-1.989349413269828754e-02,-4.133279340537020924e-02
1.011965342125043313e-02,-2.936575603229041667e-03,1.071184218271175291e-02
-7.060712873768769382e-02,-4.719046438245479147e-02,5.677405997403461163e-02
3.162074504340075306e-03,2.105987917682567573e-02,7.199859903170487130e-02
3.789774275439988099e-02,-4.963089734078848791e-02,-9.922118957214104418e-02
-2.452795180896256977e-02,-1.651213822044047402e-02,2.579296612211545801e-03
-8.007594358658153000e-02,-8.030955234004948096e-02,-3.489481294770556408e-02
1.231469142697514622e-03,1.899991882954233519e-02,-5.865168768334197424e-02
-1.192343475034297537e-02,-4.094333495864835998e-02,-2.183453904136131978e-03
3.171748017437893419e-02,-4.275139156389213407e-02,-2.400314135079284483e-02
-3.341853763061226890e-02,-5.098504406938604572e-03,4.985945364854000444e-02
-3.737238240565973757e-02,2.953828917391672360e-02,-1.110375012955123510e-02
-3.408125554512477298e-03,-2.142787308080188954e-02,-5.580695560157983466e-03
-8.185275214260270826e-02,-4.250785651755294896e-04,2.150904580000070031e-03
-5.121708527975331326e-02,-5.066453302796472546e-02,-5.154163909229638602e-02
-4.969098633956507693e-02,-3.900525942856700179e-02,-6.780392451987600488e-02
-4.760554656439644483e-02,-4.785975335352533194e-02,9.629957571479351441e-03
-5.773901344300929467e-03,2.653254795094009758e-02,7.084915999225009815e-03
-4.668359515207907984e-02,-1.248449118254015694e-02,8.955023944461640295e-02
-3.543413413380554211e-02,-7.376344478467267152e-02,2.875068976496695725e-02
1.708179126173754725e-02,-1.167973214296135452e-02,-4.993938701524261448e-02
-1.300045405991383934e-02,2.816965673697053793e-02,-2.478443889968134917e-02
-2.210560427201758299e-02,1.382018932536504575e-02,7.861072191867576886e-02
-5.193496424019215796e-02,2.954283670956127372e-02,-8.813001353578205771e-03
1.436566209890741130e-02,-1.639837939425037305e-02,-3.467899204922688522e-02
-8.273621104661633627e-03,-6.637348349329821873e-02,-9.569911044216550255e-02
-1.208024606766123490e-03,-9.088939584109585875e-04,-5.405240512550972543e-02
-6.379536638308991314e-02,4.280595046349307264e-02,6.044100126985861013e-04
-1.431439716567159404e-02,-7.982504662670664164e-02,9.954571643030533934e-03
-1.383257982661495293e-03,-9.888035821838940531e-03,3.668063679411238259e-02
-1.532781209425086721e-02,-3.781305211530531368e-02,-1.375060319812540510e-02
-5.614818892622785995e-02,1.011127437377949863e-02,9.105491250479854151e-03
9.355309416430009420e-03,-5.382882246748074001e-02,1.069884968673640198e-02
3.152669392038391638e-02,-8.993972437679558646e-03,1.036507996450531689e-02
7.281457292707738116e-02,-1.103997795751233794e-03,-3.178736807024980238e-02
2.997238034929159203e-02,6.602272320706679964e-02,3.274463134575133355e-02
-3.368754039463974642e-02,-3.154172376543160072e-02,-3.044740988057457673e-02
-2.399829936788810958e-02,3.566264170166143221e-02,-5.311675059969205720e-02
1.852052620122992405e-02,1.125747654823398142e-01,6.068391838224260204e-02
-4.097668437255740786e-02,6.808083524017136123e-02,2.582553355311205390e-02
-6.014485102421783752e-05,9.323031210813308503e-03,3.822826524525690939e-02
-7.345525260420385227e-02,4.662208635647674404e-02,-1.811507718931720454e-02
-5.527626776062286723e-02,-2.715221786360731693e-02,1.483952910315193031e-02
-2.626651349011233441e-02,-2.094954046596451958e-02,4.324620888593013607e-02
1.796580155578265947e-02,3.165183408605939355e-04,5.587660751730139791e-02
-5.014096064083969212e-02,-1.017307524440013156e-01,3.055562606587921767e-02
3.422042796303549628e-02,4.840026944226078626e-02,5.064620246617956845e-02
-7.992264566857273933e-02,3.307752511195099360e-02,-4.751571874772710785e-02
3.494186279400987583e-02,6.230868544267102738e-02,9.960136595343534530e-03
8.787387241731548643e-03,1.849561113639809282e-02,4.687264978911320941e-03
-1.425188729618660083e-02,2.160653752760818141e-02,2.603334288120845094e-02
-1.680268089937304865e-02,-2.457525878954556348e-02,-1.254175313029721496e-02
2.800058907870668287e-02,-4.186931956730804462e-03,-3.601609058522859536e-02
4.443344991667269595e-02,-6.635796320255350766e-02,7.707250921743595551e-02
1.116621845396663544e-02,8.999841063909909400e-02,3.030700155098915022e-02
-7.153468191623131578e-02,-5.708155577282979926e-02,1.992401670580788708e-02
-7.378327513501316270e-02,5.599281982026541732e-02,-1.222305839191683771e-02
-5.084972156684370442e-02,8.505430840976005435e-02,4.283290165323255100e-02
-3.381289174206986159e-02,-2.653344965111721632e-02,5.462905407596241325e-02
-3.748256542636978217e-02,-4.210806094867461380e-02,3.774084956174868916e-02
1.014887452007747978e-02,-1.838475222630032296e-02,7.926988271951805609e-02
4.274045155051853229e-02,3.912262194371995266e-02,3.015267976684566850e-02
-2.511871141693939116e-02,5.253460729480959046e-02,-9.831335308031364378e-03
2.860080067863998016e-02,5.445629597554599993e-03,8.572092897976528111e-03
-2.870161113503275768e-02,-2.677025155637191220e-02,-3.115475541400847259e-02
-2.101758472137499681e-03,-9.383937742408977878e-02,4.484049807942509097e-02
1.868347849367182900e-02,2.069232258408653519e-02,7.160072473622618172e-02
-3.427002632407354088e-02,-4.996260196001116316e-02,1.617714958811960688e-02
5.930846439416824489e-02,-5.219589572254208082e-02,2.142624991091183692e-02
-3.151754698682762701e-02,-4.388290103688178428e-02,3.419202298991576294e-02
1.895640225150675359e-02,6.161830907372826266e-03,2.864859472466586496e-02
-1.705208206521774406e-02,4.201105113151192005e-02,9.147390240298977626e-02
-3.648191157777200960e-02,-1.124933125391715293e-03,3.158063306030972628e-02
1.936361629833793785e-02,1.850041229564163003e-02,3.388252998640773391e-03
-5.039535554760834861e-03,-3.648611783923604024e-02,6.480764514085524119e-02
4.694149227615484338e-02,-3.282131880500916300e-03,-8.159128400828877248e-02
7.822849393280538466e-02,-1.441428266734060167e-02,-5.004075767105909539e-02
-5.058281989531580869e-02,-2.881667220948534724e-02,4.243568858631681373e-02
-3.979208246892998457e-02,6.885328693851190500e-03,-4.130416337966465179e-02
8.128494381504296207e-02,-5.220097654586127595e-02,-7.221143484032468973e-02
4.688816785255138855e-03,-6.510892925502606565e-02,-1.170602082067875513e-02
4.327966016944333194e-02,-4.779807143963411831e-02,-4.866511222876218623e-02
4.166858021296074993e-02,-2.144533940690218285e-02,-3.102937366581272338e-02
3.106095538530435213e-02,3.947966752029816173e-02,-1.969955666850781422e-03
-5.363239465106677678e-03,-6.698399958594275505e-02,-7.479576514396679698e-03
-1.992704272723483383e-02,4.087872175508958789e-02,8.994910144184419670e-03
-7.814720113361699194e-02,-2.189574705379904174e-02,-6.730790954290351291e-02
-2.478949542937800357e-02,1.422303426586289318e-02,5.585053340159171209e-02
-2.577106865573115455e-02,-1.888531630224829852e-02,-3.546721894235840139e-02
-4.836288322624851532e-03,3.837841262201248382e-02,-4.820510519572901442e-02
3.490231025925628200e-02,1.428813611939835394e-02,2.943585160034674700e-02
1.633719906415434520e-02,-1.434251559063122461e-02,-2.759917780518721109e-02
1.392248889231010277e-02,-2.488186435056981283e-02,-3.785528565560763309e-02
-5.514993330437879815e-02,-3.982890865539651798e-02,-9.598886329059631850e-02
5.356253024114913941e-02,-2.763919469700871698e-02,-4.286744773122135033e-02
2.110926122853824458e-02,-1.545653154880845537e-01,1.948930375289587708e-02
7.054609214839678566e-02,4.186967579574202639e-03,1.074569945072329120e-02
3.907662360735905671e-02,1.731722740697269614e-02,-9.256054898741636339e-03
-5.291320445611225054e-02,-1.093005945814974275e-02,1.875643190654823975e-02
2.352248201900419139e-02,-4.229350230629462352e-03,2.214823784425011891e-02
-3.731266723267865487e-02,-1.466030558416308444e-02,2.529622402585036955e-02
-2.784614412910084782e-02,1.478767747382906360e-02,-4.241376092870634967e-02
6.993723936909998495e-02,-1.943387695400377799e-02,1.770403072325717544e-02
6.040599178594090873e-02,-2.910762146827588007e-02,3.519999349783300979e-02
2.319078954794209432e-02,-1.659883978334920213e-02,-5.321839183248312094e-02
1.092341630390647640e-02,2.370841939760074540e-02,1.691283264768157074e-02
-5.376089476857123794e-02,-1.662065120927582601e-02,-1.463171151620090704e-02
1.717936641339517720e-02,-6.982175413417916754e-02,-4.637980565415558004e-02
6.463269662281565311e-03,1.323365478563361293e-02,1.916782729170937033e-02
4.286172461165953934e-02,-6.648955212714973036e-03,-6.399222978359329732e-03
5.757194461971709351e-03,2.625667803418268303e-02,-2.324933902826422510e-02
-3.453448785704475027e-02,-2.376308059979496956e-02,-6.104647035280956480e-02
3.572735396302977734e-02,2.568865323384135826e-02,2.750828050325800078e-02
8.630744416860196624e-03,-1.229482551731106432e-02,-4.127180938046216829e-02
5.760432061343204180e-02,2.305905850501696608e-02,5.566714780807025670e-02
-7.344381096409081933e-02,-3.281961479752387462e-03,-1.873847385946481731e-02
-2.752847120122847366e-02,2.029364464753796032e-02,2.660724555250987625e-02
9.717501622647976844e-02,3.065579950531962736e-03,1.848251058437331076e-02
8.004248300939159622e-02,-1.122119809736931047e-02,-8.449517640860970333e-03
-2.248916106565252218e-02,1.065378468374622925e-02,-3.518304338183729507e-02
5.974048373295808012e-02,-2.643348960676588505e-02,-2.478662151241711395e-02
-4.990168775460802897e-02,-3.699678946847238283e-03,3.943483433974907804e-02
5.030526361650930478e-02,-2.540732575459513781e-02,-5.418141853123824292e-02
-2.422190618003599444e-02,-4.747655875452241880e-02,-7.026705255582008959e-03
-2.741938361297761861e-02,-1.907943818541949985e-02,-7.358473188467819226e-02
2.559137552691134396e-02,-3.173892783930835383e-03,2.027496762177577461e-02
4.067902697383819766e-02,1.229010811395494715e-02,9.642627871566671061e-02
1.608508355760088215e-02,1.875614584520319053e-02,-2.325536235229995821e-02
7.308184940629594561e-02,5.339122774772149180e-03,9.612855974209143228e-02
5.310021670662728316e-02,-5.166323413000143555e-02,3.042855058353552151e-03
3.740009647574569357e-02,-9.575021398146095486e-03,-3.236996375581988050e-02
-3.070450138709066717e-02,1.701085282539322591e-02,-1.421837204268171782e-04
2.108249212173599410e-02,8.760601203058025754e-02,-6.234664245376100866e-02
1.651020670771400148e-02,-1.185876858387521597e-02,5.360671159265752161e-02
2.073370965936059337e-02,1.536937580824335832e-03,-5.028327042213792328e-03
3.021891861144731031e-02,-6.481552677189188205e-02,3.534940266460507175e-03
4.478673034175079115e-02,-5.903076061616228248e-02,-3.970570481425757421e-03
4.264601847007189889e-02,-1.534246302063263512e-02,2.891567931265958888e-02
1.640316653978887360e-02,9.959713090988203330e-03,-2.939831191236879498e-02
5.520221571844372010e-02,-5.710112377754146540e-02,-9.009045555494591545e-03
1.802132976421616864e-02,7.737836724246863543e-03,-1.348856743963127922e-02
1.929365241013976037e-02,2.468168593670149596e-02,5.230056714206705870e-02
-2.052177111416614991e-02,3.256237878430988386e-02,-2.361469252649362957e-02
-6.950141073616643295e-02,1.840903014195306373e-02,3.786775375531550164e-02
7.188005089416475701e-02,1.844154080119191075e-02,6.633127092963583826e-03
3.464252898808643788e-02,3.126086587430358665e-02,4.479089766230349295e-02
-5.223014936379623968e-02,-5.597270970842011667e-02,-4.200227183232058820e-02
-2.916535881602911814e-02,-2.790803184931181166e-03,1.833350832702219935e-02
5.244562161565890362e-02,1.163612263442099018e-02,-9.350111303370466087e-02
-4.209318558470093868e-02,5.010936406039649682e-02,-3.787416590827397816e-02
5.047065824166958176e-02,-2.850963756094295268e-02,1.317292725238429496e-02
-2.490361041193031241e-02,3.885510611081941651e-02,-2.868234937736824017e-02
-1.267579015674478136e-02,-4.674702425775243558e-02,-3.063008664392517094e-02
2.307404156694759303e-02,2.735866602820247184e-02,2.389423979817289004e-02
-1.140385153053327313e-02,2.816874842367608420e-02,-2.388346618654317924e-02
7.471256648947781354e-02,3.995585639027873087e-02,4.117590044308112873e-02
1.769895556913272938e-02,3.153222610076682891e-02,6.198754670244946419e-02
-8.770464801586722037e-02,1.007894738258453653e-02,-1.043939320696607997e-01
2.559308441519346153e-02,3.369808160167957201e-02,-2.546603869877492668e-02
1.817527136812761152e-02,-5.752346782316508644e-02,-1.799335884004877456e-02
-7.820605906180055911e-02,-9.939395579041720996e-02,5.928790513316328087e-02
-8.329095882268634787e-02,1.140782320529415590e-02,7.030369708100035753e-02
1.127261494667098143e-03,5.114004799946652441e-02,2.611286008597004174e-02
-3.744093524790255423e-02,-3.460304916890218074e-02,-1.642063230847220709e-02
-3.277856682577089814e-02,-1.866322561025986551e-02,-1.692579355206329586e-02
-4.288369595907292470e-02,3.751490448141690109e-02,-5.398464286039439917e-03
3.724058846954902968e-02,-3.014430936743158276e-02,-4.776717838935282817e-02
-4.221377129496988595e-02,2.217933646644330153e-03,-2.934386624096793628e-02
9.011904075082599608e-02,3.732455890298269109e-03,5.195006934091148110e-02
6.275003107832961835e-02,-3.058169180881399260e-02,9.457613306863399405e-03
-6.842591218535512554e-02,2.572453355810481665e-02,-2.485562106870474030e-03
3.270899422838943055e-02,1.045542778256448313e-01,-2.908303472857055698e-03
-2.010513340435341606e-02,-5.137788598896032149e-02,9.791638326316488838e-02
-1.714484185020207288e-02,1.744767954117165329e-02,1.710788023136354877e-02
-4.712939419422258747e-02,-6.723872919837603490e-02,1.600842791421255851e-02
-3.298775705753635712e-02,-6.882066555313722141e-03,-2.341728325970183697e-02
-3.315449844039616845e-02,2.478427578520360497e-02,2.695037681232534746e-02
-4.244231270673177320e-02,-4.234296961201260839e-02,3.085172174868577519e-02
-2.306655408930938927e-03,2.684694360472009503e-02,2.636114942850233817e-02
8.723391224461411741e-02,-4.838911519589108451e-02,8.286446086611904543e-03
3.161523917960500085e-02,4.848718637381783762e-03,8.446831407827129837e-03
4.560940352238572817e-03,-8.538452727022032007e-02,-6.101619872966776957e-03
2.691994544551791317e-03,4.155181652537346532e-02,-1.380730170863291723e-02
4.179046190106062292e-02,-1.310412622475190352e-02,-3.745728173916064961e-03
-4.927258920698868172e-02,3.759907734223242454e-02,1.017726792137255143e-02
-8.094136188334414075e-03,-3.251271564098232036e-02,1.423183958727565826e-02
-8.724166990435226754e-02,3.878266371659838674e-02,-7.709565108913049407e-03
-2.584822906248981575e-02,-8.755132778006469163e-02,-1.022399325477669693e-02
-1.741198521664928927e-03,1.488706559330967016e-02,-4.699927834130218640e-02
-2.071630751389002406e-02,-1.829261746546545280e-03,-6.227219024202713948e-02
5.326545056973649300e-02,-2.067616066053678744e-02,-4.154003949864502193e-02
2.805912342640478827e-02,1.168116633945709935e-02,6.066317239027994856e-02
5.763501594476657872e-03,-5.685872312901594366e-02,-1.864259740229669629e-02
1.567211073821584560e-02,3.672296878910723955e-02,3.416262319206016251e-02
-2.135650011759144748e-02,1.450200273494652893e-02,3.348818784560331219e-02
2.837007817326438197e-02,-3.728573017992461297e-02,-6.479472785157086578e-02
2.374860584169176392e-02,-3.311195603473520571e-02,-3.917318140596406234e-02
-9.050619606388315627e-03,-1.137060801467964545e-02,6.565619577079705171e-02
6.968778624332612470e-02,-1.397010585695772356e-02,3.283668317586184437e-02
-9.892080899132797006e-03,-9.943163546208581491e-03,-5.592946265753898777e-02
3.243108785058387844e-02,7.203797415845100693e-02,-3.273900039153914560e-02
3.862791756806711017e-03,1.334559981391824322e-02,-8.039402703748405044e-02
-3.392121269329006908e-04,-4.960349687871466740e-02,7.965234147052004110e-03
-2.448824245269645358e-02,3.396570070396869728e-02,-2.034445252855036131e-03
4.589191981595033137e-02,3.426410122609620332e-03,-1.707290877774624363e-02
2.269994319493844406e-02,1.868797613198879340e-02,-8.639741814899690522e-03
9.102524434757036653e-03,3.750701438776065776e-03,-2.593959468546119806e-02
3.703360683782475071e-02,1.574042545151732586e-02,-4.472005498594854023e-02
1.991455174036269038e-02,3.409972136460071024e-02,1.089767634093295398e-02
-2.764349351983050058e-03,-9.107456188540932751e-03,6.181687817093955289e-02
1.822188275128818966e-02,-4.982372806889415889e-02,3.351178962820233927e-03
-1.110835454239737612e-02,-4.531795247211399535e-02,-5.228713877486602934e-02
-8.442091339313846643e-02,1.295881968866796456e-02,-7.592393102762520947e-03
2.415845018281994813e-02,-2.169584059639283885e-02,-1.786620766377266731e-02
3.345485056450998168e-02,7.472246416462298424e-02,-6.778229408286291779e-02
2.903192894459209576e-03,1.401871126166076391e-02,4.179251483137504802e-02
-7.131868862954006405e-02,-4.221901391173218249e-02,1.236300064578844254e-02
9.176940282284667960e-02,-6.801697475476420340e-02,-4.104111409058696508e-02
-1.409261087250603672e-01,-2.357932175040393721e-02,2.798742468024232460e-02
1.662232242987028361e-02,7.017239890008897946e-03,-1.831945281338123038e-02
-9.954787735154874140e-03,-2.542429938687422800e-02,1.305592152463138332e-02
-3.627732541216767415e-02,-6.791120622795865369e-02,2.765533971080429490e-02
3.149993813227718736e-02,-2.277486036440432016e-02,4.913331767472120743e-04
-2.666834443816437986e-02,-1.244598496813481212e-02,-1.114077403870539218e-01
8.742523680688835119e-02,2.365752343075854316e-02,4.545043797018855775e-02
-3.713478234423652630e-02,2.213385823219369067e-02,-5.765746045141943027e-02
-1.331203815251079219e-02,-3.493203231557354821e-02,-4.152515557500314342e-02
-3.308614498522489261e-02,-1.302303552671175112e-02,-6.680516191499523545e-04
5.303463473467898148e-02,1.004715272658450870e-01,-3.263727827406104343e-02
-4.797288503200157483e-02,-6.150891773983311814e-03,-2.830532532686996783e-02
3.448625412680923763e-02,6.912277548044620801e-02,-1.823199217347495904e-02
3.033086828511268387e-02,-1.759459702793132393e-02,-3.599664656445116656e-02
-1.014940968101917668e-02,2.169183282044703787e-02,-3.710313646715563546e-02
2.836805876614975630e-02,-2.403579934032396004e-02,-3.727635823886053107e-02
-6.186551675790757758e-03,5.944284221805516688e-02,-8.859859125960895671e-03
-5.893072013633429002e-02,-2.171539868271548865e-02,6.786165104505111068e-02
4.913190117228967424e-02,-8.275146438384363423e-02,-1.926417220335840605e-02
2.028035481382372066e-02,8.614268027289294360e-02,2.286875919760491399e-02
-2.327873019031998642e-02,-1.234464347936020494e-02,-5.065046872943088085e-02
9.594163991468842093e-03,1.923308070280151799e-02,-1.115108825610133664e-01
5.816740086054578152e-02,5.757795465630098641e-02,-5.405312785327311652e-03
-4.732145397766969637e-03,4.355558308091161263e-02,3.610765727559215460e-02
-6.712183965320724088e-02,-3.080441229633883518e-02,-2.939223520676001108e-02
-8.152195432145943263e-03,1.003421782950537910e-02,-3.410672015531855672e-02
2.159944423342894521e-02,1.221115392660083662e-02,8.422161875285468294e-03
-3.753327012129169249e-02,8.020456897369643290e-02,-3.544795387268898090e-02
-9.874835508998975123e-03,-1.163681159973567122e-02,1.794443919324864578e-02
1.118513960351427868e-02,3.572939621389107506e-02,-2.145011458966182213e-02
-7.363487151113913207e-03,-6.117342610608470475e-03,-8.446260571242678733e-03
6.769701834155152087e-02,-3.306176605776434130e-02,-5.664811069242282893e-02
4.852874144877777213e-02,-1.919518318815451735e-02,4.801239076141847195e-02
1.522537250052038646e-02,-3.228058204205207921e-02,-2.392005822688600403e-02
7.331813526922562052e-02,3.875748250547984743e-04,-2.481793462019235303e-04
-1.270153417247194688e-02,-1.009417208875167116e-01,-2.640283932758049484e-02
-1.391169027162634519e-01,4.390248842605475044e-02,2.565629944982577085e-02
7.602644993695331643e-02,-2.228248412679055893e-02,9.491041217628547189e-02
2.205028248472390429e-02,-4.346768108557383381e-02,3.736582439596903421e-02
-6.246145237146422113e-02,-5.310040013068243782e-03,4.079497297301296066e-02
-3.771549631983273088e-02,-5.035172467347823200e-02,-4.222584736289867330e-02
-5.953194531596606165e-02,1.402049945206582972e-03,-9.307054930400600334e-02
-4.009210279882897965e-02,-2.726379138778645128e-02,-1.621512626525294792e-02
-2.439320556447565486e-02,-4.468735607444360158e-02,-3.587390545195227702e-03
1.992913759829853179e-02,-2.212895390853367866e-02,3.774363093597068314e-02
1.699258717773913241e-02,-6.128403583335625265e-02,4.092120425315295962e-02
6.533532812523249085e-03,-3.470751993693346749e-02,-1.083566971962440645e-01
2.440529630624933138e-02,-3.422109700722849538e-03,1.977522299711052464e-02
2.238011426630488396e-02,1.733856618318137602e-02,-4.475063133424102280e-02
5.031698133563117237e-02,1.267343535594596220e-02,1.886809510321797376e-02
8.443516481703999474e-03,1.243084989005550922e-02,-6.544148019364615099e-02
-1.319421294819439830e-02,4.728966675428036663e-03,-4.264630817689191167e-02
-2.471891440798832523e-02,4.622798520431018279e-04,6.862787515821747696e-04
5.471074968709219166e-02,-3.242330675044195754e-02,1.131013524357218393e-03
2.854055321546756022e-02,-2.365801274269347873e-02,1.705630057372942154e-02
-3.673589978860616889e-02,-2.092523567960652420e-02,1.849288695928684792e-02
2.750074037301425411e-02,4.647535597443409189e-02,-3.563354189777502568e-02
-1.608815390379585847e-02,-3.985124046723284574e-03,2.684911542077410285e-02
2.215017948361138606e-02,3.826372000723377020e-02,9.521991469105156591e-02
8.651977111608706583e-02,-2.242930105838611930e-03,6.694506393156767800e-03
1.759050433179742967e-02,2.796807851721473323e-02,-3.804914133987585129e-02
6.396361053674111397e-02,-6.910118901998545116e-02,6.447429674477413164e-02
-5.600979767232432821e-03,3.985843365412161665e-02,-5.796500835123380435e-02
-5.020033081744849912e-02,1.507256561630574733e-02,-1.044923625170123271e-01
1.475265342359242601e-02,-3.300123161195581828e-02,6.075832325428041913e-02
-8.381588672459069911e-03,-1.487759062514145032e-02,1.181080686844111034e-03
-4.003473588028401420e-02,4.308232279841209961e-02,-2.363343903646036859e-02
2.766945860040008129e-02,-4.706991957881575921e-03,-5.341165290430655022e-02
7.137346807662926264e-03,4.194560169987661402e-02,-8.766763019644568944e-02
1.398108311521846156e-02,-3.771625395966274330e-02,-4.747976708858304626e-03
-1.140665869675513110e-02,-1.615932214422859808e-02,2.396398199213486263e-02
-4.717005513771214964e-02,-8.436783272220976793e-02,2.092022522503258694e-02
4.718416095260478949e-02,6.939356111465477817e-02,-1.884301471004280748e-02
2.210665729369512209e-02,1.086880463436254028e-04,-2.277906243305189479e-03
-1.935788079357950511e-02,-4.174444132499501026e-02,4.166727575621450089e-03
-6.672752506984905296e-02,-1.426390809039022878e-02,-4.329983990963943985e-02
-6.989888523107373915e-03,-2.039217134099311976e-02,-4.973176324238032936e-02
-1.785542137104718582e-02,2.881886413828993812e-02,2.785023217951057561e-02
-4.935904983579289529e-02,7.695549888916197734e-02,1.180959777799114006e-02
6.759152489575293021e-02,-2.900195718971066913e-02,8.083160916018863884e-03
2.715929618304287543e-02,4.182742981550088834e-02,-1.221936078270273104e-02
8.923159196229396573e-02,2.210127769825901041e-03,-5.960945366059505063e-02
9.308503028835683063e-03,4.394319096636829791e-02,-6.377834550643642075e-02
-5.570158732332207430e-02,-5.362712379479543656e-02,2.969044585792073379e-02
1.210973264710941272e-01,-1.158513161978772747e-03,-3.438202621981299376e-03
-2.451724342149411845e-02,-3.185641557734819607e-02,-4.220657068436171715e-03
3.943932507329131476e-02,-4.802878490880416879e-02,8.580750736908959730e-02
1.203230475386489126e-02,-3.935554229442209118e-02,5.634505691871797639e-04
6.887071097538940284e-03,-3.910253200582364252e-02,-8.216579262317058596e-03
-1.778249274468140725e-02,-4.155365671365449792e-02,2.738873544304499391e-02
-4.555804209222572010e-02,-2.028138507086117356e-02,-6.626250929068329409e-02
-4.955201357625674957e-02,-2.410582975476460027e-02,3.605885503262588193e-02
-3.476256856225855285e-02,3.299478513207368402e-02,2.870051939562659124e-02
2.205326041638510162e-02,1.690417352875382001e-02,4.641050517185238422e-02
-1.368899072581170745e-02,-6.798286190494595531e-03,-3.824536709791408196e-02
-6.582972746547256782e-02,4.539137879007779271e-03,2.715166422477829217e-02
2.121562161945294081e-02,8.723088896274797110e-02,2.642651147291838476e-02
-2.487200926182391719e-02,3.910703180568508158e-02,-2.668805470389170979e-03
4.057077364855098123e-02,-1.292073256080327089e-02,1.472691581886034599e-02
-7.782223797147484745e-02,-1.550124638333084254e-02,-2.861807340430461664e-03
8.180288855559444960e-02,-5.613087236935088847e-02,7.739165934640178379e-02
1.875518829705728014e-03,4.708731900983247065e-02,-3.557960802655549953e-02
-1.849565490900313344e-02,4.023156296995218650e-02,1.757211009674401053e-02
2.691124630974627008e-02,-7.347862341192777300e-03,-2.333729055447964287e-02
-9.753527321137094031e-03,-2.573643849538413339e-02,-8.099031990727047214e-02
-1.303830259950808021e-02,2.374597523359480572e-02,3.358660894053436957e-02
-1.283831715043583753e-02,-1.488765413483082896e-02,-3.466045329473126102e-02
3.771868120618306758e-02,-5.660661300118149941e-02,4.711537417463161626e-02
2.549922429099829926e-02,5.838605868376946922e-03,-2.165461185700413155e-02
-5.832489072757381793e-02,-2.464027486341403145e-02,9.529070226979236349e-03
3.724582565542885332e-02,5.218401871269892633e-02,3.108533137151126089e-03
4.986182328508655809e-02,4.051601692895422102e-02,-2.973157179658384927e-02
-1.524393305353547411e-02,-2.581292815975858024e-02,-2.124877555186933942e-02
-2.586899015789362799e-04,-4.621795004169737542e-02,1.702630125516951809e-02
-2.041586909434557964e-02,2.824088821179109726e-03,3.336198223498238608e-02
-1.333772487884149656e-02,1.865389221498736996e-02,4.005907684203832697e-02
-1.877188285405314433e-02,-3.034844447063807932e-03,-4.833501727634680056e-02
-1.537098005254921435e-02,2.743310059104747331e-02,-3.443759883952111217e-02
1.034304882794246684e-02,-4.516655120593284639e-02,-3.790849286505679205e-02
-4.646282796509337149e-02,9.659298673224489540e-02,-1.240769248838727475e-02
-1.176863022604515523e-02,-4.056597196208658329e-02,-3.765957580669110349e-02
-7.329979467097661253e-03,1.604774923726181093e-02,-8.920116250769214924e-03
4.572832779032657419e-02,-1.472013611527315038e-02,-6.944637308823214950e-02
-9.402924569653086859e-03,3.333262655780149658e-02,2.393342362340677640e-02
9.067272901815538744e-02,-1.847149715778242940e-02,4.139065195649264950e-02
6.258838832235699701e-02,1.954152603127323404e-02,-2.057577439136112907e-02
1.037999166099238917e-03,-2.156666171908972959e-02,-1.645758535682227078e-03
-1.424751637676157923e-01,4.372833416038660048e-02,3.196540676708927581e-02
-6.511579308661036292e-02,-1.568573409104259686e-02,-6.475318454950083902e-02
-7.563389879222051637e-02,9.205549024234480071e-02,3.447773474309766273e-02
-3.230058524066898445e-02,5.544785532330323910e-03,2.213547829888640531e-02
-5.315266133845412966e-03,-1.929122437314296362e-02,-4.808971791183514616e-02
-1.027700109821889779e-01,-8.265327650974783891e-03,-6.033784003539924973e-02
1.972153248370911091e-02,-5.872930237882461463e-02,-3.379528447377320001e-04
3.113188055906646393e-02,6.237152380817363034e-02,1.880658010658865092e-02
-3.254544328236717854e-02,-1.058755674901833005e-01,-6.265341639319215415e-03
-4.492410540299881377e-02,3.515347318155575412e-02,-4.214956610212757665e-02
-1.286484809626611998e-02,-2.846808865610634884e-02,7.468636770079027654e-02
-4.001682382031834795e-02,-3.816946050190451328e-02,-4.048192289733069937e-02
-3.328636123869872093e-02,4.114974873368544561e-02,1.574036650077541635e-02
-2.568323021062798514e-02,1.556748654881529199e-02,9.244535730296038825e-03
6.196109594646323493e-02,2.875910073965200903e-02,8.457675470230520756e-03
-8.563471454993049764e-03,5.951733025778587621e-02,-2.709423608487046900e-02
-4.215382269155845685e-02,5.202480183879491056e-04,1.978608851944891472e-02
5.154052349052339749e-02,4.459028890671352940e-02,-2.147706123570719550e-02
-5.129692349341410246e-02,-2.668101181958620546e-02,4.601722924698598699e-02
2.751584725318707847e-02,-7.665631064144870499e-02,-1.549895327674800059e-02
4.841710112328781457e-02,-5.851381199467139971e-02,2.750757668065036392e-03
3.603585484156325569e-02,-2.522173869573791395e-03,-6.338269463981737904e-04
-8.191860667593053869e-02,-1.480612111393842661e-02,2.049319991333018245e-02
-5.938518572616064556e-02,6.324596245247169832e-03,-1.769682539362519560e-03
-2.739872041136449596e-02,1.076101412494414981e-02,-3.426753607306826793e-02
4.681137124740595429e-02,5.577290187227325335e-02,-3.142013355455256646e-02
-3.891000169547614851e-02,2.281875222036107431e-02,2.800010894384482620e-03
-2.483697537030228955e-02,3.379541902479031579e-02,-1.807074665100870739e-02
3.662046843453700684e-02,5.761556560434372837e-02,5.906821676436744412e-02
-5.991782943201452022e-02,1.958125810386145485e-02,-5.660149336777325901e-02
3.933589003108022009e-03,7.625027863566430537e-03,-2.977586543003626907e-02
-1.366445701454995637e-03,7.781103087552153352e-02,3.415341673319750859e-02
-5.726782416391498765e-02,-4.385223576649172755e-02,4.804678069519333766e-02
-6.894078715252558234e-03,-3.982027086237507549e-03,-3.947578614758921745e-02
-2.333063867228113084e-02,-3.745452509432273952e-02,2.147724661544139074e-02
-3.709038229750312443e-02,8.186260793920094314e-02,-2.636542823394901272e-02
-2.902543231406256447e-02,1.998550978367982789e-02,-7.109505357301909578e-02
2.479321231081397028e-02,3.729974095862134686e-02,-2.589812778314515632e-03
-5.493798936591308413e-02,1.407242322611746733e-02,2.237619275549110331e-02
7.834504028422259458e-02,5.030244034999418329e-02,-4.974083846618394117e-03
-4.363955729244392567e-02,-5.150144924955417369e-02,2.000331176919730586e-02
6.326747731060569473e-03,3.693425810973282458e-02,-4.899931133433590297e-03
6.594979061044542457e-02,-1.166076874977626729e-02,-6.456580463178551721e-02
3.433787486748553219e-02,4.877065607124689804e-03,1.878490456923711388e-02
9.658394943138590497e-03,-5.276654634338143190e-02,3.082010361428572098e-02
-2.034600676509887643e-02,-8.021828004297013037e-02,6.414676583920944641e-02
4.558832432557941017e-02,-7.047697769683694546e-02,-5.427376687320820299e-03
-5.415402002749862553e-02,-2.890747953210540122e-02,2.880102343529444137e-02
-3.864235138038731726e-02,-6.481515899601564268e-02,-4.267838053325850867e-02
1.234264093605057649e-01,4.474452379846250577e-02,1.650507089500578145e-02
7.005485387799958996e-02,3.410110001479289138e-02,2.287863962508594057e-02
4.525366853296628952e-03,-2.790521064068980824e-03,1.558790599866136974e-02
8.515413964465828878e-02,8.106932857274970483e-02,-4.100638836049180606e-03
-2.826126309808630818e-02,-3.941132472876556631e-02,1.262353387017971229e-02
1.196474457052250015e-02,1.401238095180380727e-02,-4.905328572874031318e-02
3.257212310375008635e-02,-2.620636963305809225e-02,6.552890863185280648e-03
4.278609856912697629e-02,-7.250039633989288634e-02,4.566450240849243697e-02
-7.220524960072382571e-03,-1.110649578533521621e-02,-1.550968097837944829e-02
-6.352787075344679124e-02,3.308751099817911628e-02,-1.158318750478313369e-01
1.092792533702425725e-02,-1.357972994282258608e-02,-6.546668597575273918e-02
6.621799765765354166e-03,-3.330569487710169363e-02,1.394986123247742710e-02
4.745317667614568774e-02,1.454635477065932894e-02,-2.458246414383803008e-02
-3.040477923919708905e-02,7.588192937970136831e-02,4.146724364901417659e-02
2.057415611442647146e-02,-6.987101165307860184e-03,4.300061521504407180e-02
1.107637517463203880e-01,-3.518931106259751140e-02,7.445598402129026405e-02
-5.818529576063728725e-02,-3.229744852307501329e-02,-5.142792611107944306e-02
3.478165013531708122e-02,-7.567531062659146879e-02,-1.337002097791691740e-02
-4.586187286799283530e-02,-3.475228991169298370e-02,8.849471979965754798e-02
6.033935103137114120e-02,5.765278791020304189e-02,-4.929797534532956438e-02
1.939128936882545187e-02,-2.283005571105815867e-02,-9.129036439562716182e-03
5.795082277139812499e-02,-2.786915428508221840e-02,3.963010335973200793e-02
-1.280279888896236791e-02,1.492871409889372572e-02,-5.469188945331430324e-02
4.444755815259913978e-02,5.938168161518983523e-02,7.621900925569694007e-02
-3.384868796603149321e-02,5.744573981537471306e-03,-4.526392612424563061e-02
-3.249523090597212366e-02,4.168100143232675303e-02,-4.348643282815412014e-02
-8.948246259328570748e-03,2.804899822618663052e-02,4.188454792325517484e-02
6.024142042548871756e-02,-3.758906489829850345e-02,2.722956114941595812e-02
-4.494857307568510957e-02,-4.529247117665834675e-03,-6.098668004322455732e-02
-4.967492050214774614e-03,3.493381089204793122e-03,1.185400024033047006e-01
9.962836817463530115e-02,-3.083826803630106052e-03,-3.882892624497204237e-02
4.040981266868073907e-02,3.834172762953201585e-02,4.488789047008364536e-02
1.088943306580118960e-02,-9.666929236402568848e-02,-2.172640547746796692e-03
-8.543763066957124619e-02,1.722733429128052787e-02,9.764737308643087546e-03
-1.853057015045941240e-03,-1.171879700491314409e-02,1.008659290810448063e-03
-1.196357413408364809e-02,-3.975883227843217751e-03,1.020603579603043647e-03
2.470678300752669754e-02,-1.540431342026269551e-02,-2.574839605424071934e-02
2.260824458254684019e-02,-2.426008609534743756e-03,1.125139970559673776e-02
-1.361208814627189873e-02,-7.749444875874053618e-02,1.535145131934266029e-02
-4.955583935456263356e-02,-1.024697874026735123e-02,-7.815342204481889182e-03
-3.599157653724390643e-02,7.685887407817583450e-02,-1.264287641824345630e-03
1.546212960803012432e-02,5.686615362195324846e-03,5.133792229581827377e-02
1.074667704020724618e-01,5.085992607300170165e-02,-1.826225240876618028e-02
2.055729586904315575e-03,3.070252536479240249e-02,2.772122958472808540e-02
1.424832860911069005e-02,-2.981357930480440545e-04,-3.289732079008982069e-02
-2.654466216595521844e-02,-9.037277123890869596e-03,-6.418397770936579150e-02
3.869919449248806348e-02,-6.879049528417977011e-02,-3.150291260808190524e-02
-1.494068616919287228e-03,1.441296660580450480e-02,-6.231658539891223730e-02
2.730850320773153470e-02,2.878198491605233299e-03,5.172649110543736141e-03
2.939766213244790136e-02,5.020747417038024657e-02,-2.332938956609149905e-02
7.454278433320948860e-02,-1.050529841418796767e-01,-3.450045140457281417e-02
-3.758781992764295005e-02,-1.782991496076255511e-02,-1.010592401586700613e-02
-5.860456115545774336e-02,1.553786201819002712e-02,2.399195327638536240e-02
5.067373894764525509e-03,2.270824575477321458e-02,3.550893659872311758e-02
-2.857386770008113128e-02,5.220913043462634823e-02,-6.564164026752616898e-02
8.411074536717449285e-03,5.557865027191528917e-02,-2.063442892299860096e-02
-3.264334855607758240e-02,1.940111272824043137e-02,5.125728703332583375e-02
-6.050782195541136443e-03,-2.658590841561932899e-02,-4.172055457548352886e-02
-4.333373293606857662e-02,-3.035002880394268437e-02,4.152193564124863345e-02
3.893471162356756943e-02,5.905499444627310829e-02,-2.258078846500509440e-02
-1.377976871234029045e-02,5.272699520624605542e-03,7.122038550390386719e-03
7.674937336062677418e-02,-3.353086456172225949e-02,1.294447435151680446e-02
-7.144726365137994695e-02,-5.207873724766414608e-02,5.610627738733714454e-02
-5.104231813410115004e-02,-7.270323285954654680e-04,-6.116342393624792095e-02
6.174792695965476003e-02,-2.058940764526285758e-02,8.134383096102117822e-03
-6.558019348402847372e-03,5.911381873417718980e-02,2.053444501382883751e-03
9.713397475312308960e-02,2.048127439973954425e-02,-7.499742243224065234e-03
2.884995040505303546e-02,2.639927488768698677e-02,1.731671771504558754e-03
7.666369187834089563e-03,-1.724054577379713002e-02,2.530671506233158133e-02
-7.535593766194881998e-03,-2.320186695427651005e-02,-5.886140335424325937e-02
-3.257142751973157030e-02,-8.051877616187483669e-03,9.589969757223586189e-02
2.280881072198355508e-02,4.562051297608767098e-02,1.872137827509404509e-02
2.091128225361354822e-05,7.279609113232081083e-03,-1.661090987518476156e-02
3.863395962241485820e-02,-1.085713270736776833e-03,8.147391494150679758e-02
-5.984236781884253939e-03,-4.869729496254664690e-03,4.182770372096599604e-02
6.224348164996049843e-02,-1.731855655846307324e-02,-1.998451206186615051e-02
2.503630035090196812e-02,5.135974704303730709e-02,4.984866908674529667e-02
6.590308173773350153e-02,-3.223984550879745170e-02,2.102625283746792015e-02
-6.272417501730717659e-02,5.225643075327005005e-02,-3.719251269366467827e-02
6.821524525682485206e-03,4.617747885155495252e-02,-6.798843719978960032e-02
-2.370326008479292298e-02,5.069590810468188602e-02,6.349705209401469881e-03
-1.763144081045973227e-02,-2.394478710204811511e-02,-6.937878153889982802e-02
2.071751310765636983e-02,9.651919801114570985e-02,-8.518882234249659791e-02
6.074616037211589409e-03,-1.326171048058496019e-02,-2.529379856418360190e-02
-4.339737125577228932e-02,-2.399054214084066911e-02,-1.107599488952060000e-02
4.670800662013305411e-03,3.303376113163883007e-03,-8.180207605879809968e-03
-9.923939376955291311e-03,1.687378349469856320e-02,-3.604802867053004400e-02
4.266100820766587781e-02,-2.040784334412181628e-02,-1.017959333650916148e-01
-7.940316068100856939e-02,-5.556829288654990123e-02,-3.116901402728862111e-02
-5.673601426482267202e-02,7.414988239401179571e-02,3.587797641684016547e-02
-5.396454933197914090e-03,2.363071352111909516e-03,-1.355455981483270067e-01
9.201410825085572232e-02,-2.419376455903217080e-02,3.961183212852274760e-02
-8.347039452242435709e-02,-1.124963036420405064e-02,-2.242812899142496846e-02
3.459170743789696627e-03,6.563882980591529900e-03,-7.913165195092464188e-02
2.663618384405421965e-02,-7.605311887525902093e-02,-2.305971368215530351e-02
-4.492407014404414312e-04,-4.098349907524340835e-02,-2.629866697622845403e-02
-2.209678582783452042e-02,-1.026114532716191491e-02,4.509158867266075538e-02
1.552359470644294054e-02,-6.671611022211397513e-02,-4.818565476365956057e-02
-6.850225689824720500e-03,-2.588747289146982669e-02,-1.035273098948679728e-02
-3.292160976998934909e-04,7.298562900902201556e-02,-1.167198274768538151e-02
-4.215978342368890269e-02,-1.587942550963080193e-02,-6.374186273250710688e-02
2.198278604157118815e-02,-3.325421541288355737e-02,1.698492275900475093e-02
1.434516823993070046e-02,2.997402508502050589e-02,-2.836723967282721304e-02
-2.042814417895997409e-02,6.629571029070626016e-03,7.233137030197911606e-03
3.306871411386090587e-02,-3.023310121457010221e-03,8.052793190883346386e-03
-6.504015528716133865e-02,-5.015763239569011323e-02,-7.212573309463612969e-02
-2.704612779195181629e-02,2.136293270674972065e-03,-3.666466901586158331e-03
3.189646475442260015e-02,-7.255430153549111139e-02,1.209485415442123311e-02
2.663114916634076734e-02,9.760786417930156222e-02,-7.239760173563776491e-02
-2.501579118033185958e-02,-2.212778004175560212e-02,-8.134582750721369715e-02
-1.000120124656829756e-01,2.711233609487975760e-02,-4.258812951381795581e-02
-1.184124115418658529e-01,1.840704871822887098e-02,-1.103910339743349386e-02
-5.522922155191262866e-02,2.126715243540326303e-02,-3.901202771615237819e-02
2.604474068544301857e-02,7.241689918190354416e-03,2.264918663727107789e-02
1.125888832641341701e-02,-2.662597226708708978e-02,7.933736032384300363e-02
3.708150784016892021e-02,1.382864614784423858e-02,-1.979228886484849653e-02
7.728513396285630402e-03,1.808955000414318864e-03,-1.908316917085459488e-02
1.395234622650264739e-02,9.596183118348568459e-05,-4.697602219248823898e-04
-1.132706882445081928e-02,-3.506283621052087157e-02,8.310798907354779996e-02
1.679306393344768764e-02,1.688604000862746479e-02,-3.598744449555531244e-02
2.114864613222858930e-02,-2.251238659419015770e-02,-5.840348700854849917e-02
3.801055305613701418e-02,-1.736819246381147812e-03,-4.419899918759174345e-03
5.090690070586029181e-02,7.481993404743811360e-02,4.485734402610714461e-02
-1.032215430418734203e-01,2.193259182759377257e-02,-2.816162156457149412e-03
-4.625810836981782831e-02,1.559837829161384200e-02,-1.006649822634666375e-01
4.233481693153993280e-03,4.783411198461941238e-02,5.046099516221830977e-02
-5.739922198155087557e-02,-4.103311965562338876e-02,-3.699446496124580291e-02
8.890806949288626582e-02,8.734379725806103167e-02,-9.535704951902767429e-03
4.353052757271496515e-02,-1.244555307581675244e-03,3.842969501798244869e-02
2.894933040884871411e-02,-2.677889550380107425e-02,-1.477691936502362885e-02
-3.098184098488054438e-03,4.916692461505683259e-02,4.425263049903526563e-02
-7.865564064958896137e-03,-3.928934337979097385e-02,-3.517595960535715299e-02
8.795448823728570231e-02,-1.182463607157116098e-01,-8.115078992796705137e-02
6.734974723841274588e-03,-1.544305008674061626e-02,-2.732348918379776809e-02
-7.669776572033216999e-02,2.233800911156153673e-02,2.663627964325038580e-02
-1.472781600795775719e-02,1.624064464180504860e-02,-5.466833143384225435e-02
-2.603274917920430503e-02,1.796054667186057149e-02,-5.784918228624404135e-02
-4.292086184099471596e-02,-1.255724538763396472e-02,2.892291254189238714e-02
3.955408486759356967e-02,7.868911925565797967e-05,-5.031646867487413188e-02
5.902176571820899609e-02,-6.540741389948037665e-02,-3.793547673839685330e-02
7.817726534374956279e-03,2.948439278062899016e-02,-3.628149999244134703e-03
5.190770688845111613e-02,2.216454407760917039e-02,-5.274540720337672628e-02
-4.001252467441766825e-02,3.658313752992135154e-02,1.790408212364034274e-02
2.263270717472034080e-02,9.293512838646565688e-03,3.557843824607059835e-02
1.228250884855619160e-02,-1.600673974009187914e-02,-1.867858017490934500e-03
-3.373548682577377084e-02,7.650744644243343690e-03,5.825334172552150945e-06
1.820019982047803297e-02,-8.899152994366678338e-02,-4.901467439672826942e-02
-5.108878212821977780e-03,-1.533494841089493368e-02,-4.651811327690785758e-02
6.386754810159553375e-02,4.049856425772327406e-02,-4.669045033740214348e-05
6.903189043735119372e-03,-5.225708985486649666e-02,2.773279492279420808e-03
3.252598195996000453e-03,5.465673976367611819e-02,-1.899792555542188094e-02
4.940798113470738599e-03,-4.371913801148949452e-02,-4.436093089024256003e-02
4.352696606521391787e-02,-1.323194534048847092e-02,2.596316876826770814e-02
-3.418147264946076735e-02,2.991300670418043360e-04,-7.127481967993028363e-03
2.253234155615702755e-02,-9.661245649407224773e-03,-4.709386663713054783e-02
-5.874947645623882636e-02,5.816186880650493600e-03,5.450378440041100253e-02
2.598694816196574654e-03,-6.074009009952559268e-02,-2.290852914278736913e-02
7.957387685775557662e-03,-2.004744205963120141e-02,-4.563695012997631695e-02
-1.053154499153812797e-02,3.730458917427230403e-02,5.870610650696352073e-02
5.529307812675311740e-02,5.809891177166898873e-02,4.292170720468622275e-02
-1.993507478060085533e-02,9.687572723336129038e-03,-1.130793817370660641e-02
-5.227095708154898962e-02,-3.514056537025991595e-04,-2.015315001669353706e-02
1.360397880369741165e-02,-4.297807669984256979e-02,-2.163266507949347314e-02
-3.358586659079437070e-02,-3.436576442617468585e-02,-1.282510213598982672e-02
4.645879705107605617e-02,-2.249753181425408546e-02,-2.449623112244243839e-02
3.388257331290586011e-02,6.137457196738017179e-03,-3.380204415469090923e-02
4.806591130620787439e-02,8.972289225870996865e-03,7.404020625038627845e-02
-7.679857621584046390e-02,1.822077713100160937e-02,3.173503266582920757e-02
2.074137748694224181e-02,-2.664677722967155604e-02,1.967476349515195552e-02
1.311561612562821104e-02,-4.036487374903176967e-02,1.398104688601615846e-02
-4.870563703679696432e-02,9.780995155684645004e-02,5.373321254457910819e-03
2.031706770334530329e-02,3.054473044756378028e-02,-3.985142268156922213e-02
2.460778029917044460e-02,-5.630596645603918454e-02,-1.269539615851653612e-02
-2.097215128195428421e-02,2.551649502686186011e-02,-2.220456498985309488e-02
4.920215269051343016e-02,2.822367530145276915e-02,3.510064846434753777e-02
1.195351060527406577e-02,2.982297747384488745e-02,-3.189039823419248521e-02
3.155106151697841671e-02,3.663286374067212942e-02,1.947183347856247179e-02
2.288688527163302427e-02,-3.039050488294743266e-02,1.104148815464252170e-01
-2.653387414750998236e-02,3.871821691683729333e-02,1.435663822696844026e-02
-1.797583422590989452e-02,-4.882140594835036353e-03,5.209149409278093085e-02
1.529654534702298493e-02,-3.476893391526413024e-02,-4.715535608298223463e-02
-2.001665292200051002e-02,-2.106429142393565976e-02,7.160318925101460952e-02
6.170073695318256841e-03,1.466003137494287754e-02,4.255763375629600248e-02
-2.200938119607643087e-02,-5.852603360982133740e-02,3.098789057752733903e-02
-1.626661549527520009e-03,2.521411129004937079e-02,-2.054517804295027603e-02
4.984463144747840191e-02,3.790741804021436484e-02,5.363095278825725370e-02
5.032590009201992620e-02,-9.691715164303071200e-03,-2.622631543806109092e-02
9.929794723399394674e-03,-2.836880098795947769e-02,3.524418439627469840e-02
1.206514854819755456e-02,-9.841490889929006836e-03,3.088315697082323966e-02
2.665459870482646265e-02,3.827994091617845790e-02,-1.509010517238782434e-01
7.482286792138729496e-04,8.990566948384166521e-03,-4.765996860010426189e-02
2.614936963398649047e-02,6.994278027968199585e-02,3.423748606582768111e-02
8.295229739792594689e-03,1.719732676784432174e-02,3.536211969846881492e-02
-1.267692511023195585e-02,-3.593489969175533288e-02,1.215613326723845831e-02
-1.325767559950639385e-01,1.816997968034116465e-02,-5.297667619050500792e-02
-5.340522949307752523e-03,2.613924361559081047e-02,4.471638621263893804e-02
-7.750293749222499085e-02,-7.639072341322156526e-03,-2.878732033716429467e-02
6.660017310244277511e-02,3.246004230506506494e-02,8.756339621645983090e-03
-1.813879515077920432e-02,-2.068538696462743007e-02,2.987210054094145955e-03
2.126538632789259226e-02,6.791715799622942418e-02,7.910555885486550420e-02
3.705856331706464113e-02,5.066078252199087556e-02,3.913117880989518127e-02
4.102764594953601379e-02,5.530098599582594296e-03,-5.220821762587055104e-02
-5.812291810762126865e-02,7.682222877277092299e-02,6.191346053304160046e-02
2.069911677137390230e-02,3.648590242499007152e-02,2.780097118312628915e-02
3.981931099035325439e-02,4.443067084113019871e-02,-3.975209728301602047e-02
3.702927673973171324e-02,5.998090977819731107e-02,1.291125189468315428e-02
-4.529755725648876297e-02,5.520211661593910080e-02,-3.833973662019391632e-02
-3.005480322530044296e-02,-2.437291989600325146e-03,-2.929603036702593116e-02
3.072946642576947912e-02,-4.762455035447364649e-02,-1.810669190576001328e-02
1.432823505601692367e-02,-4.938700245352530688e-02,2.504204048408851732e-02
7.409752656485343869e-03,-5.107403000007964058e-03,-3.641625828579207746e-02
6.347701901153573502e-03,2.368047522835050114e-02,4.093991261959940148e-02
-3.547350938078473737e-02,3.100330773133403925e-02,-4.814820487486097533e-02
-3.023331234902991438e-02,8.558245841368422591e-02,-2.253273900869473556e-04
-2.301599415928969397e-02,-3.349796476698732595e-02,1.440330427328387342e-02
6.935740242460802438e-03,4.151175550581254203e-02,-2.708085611278910135e-03
1.400975117274278967e-02,-4.658144452208926728e-02,8.699607102438135231e-02
-2.312811334121960341e-02,2.867680070173924539e-02,4.113749369620690877e-02
-9.191838043943557912e-02,3.026219992630026570e-02,3.687889090227219977e-04
-8.085309851177957530e-02,1.234494223345889222e-02,3.610716493830990782e-03
-9.772222909541898594e-02,-2.153138700191251781e-02,-1.176684643747792289e-02
3.856266550048607217e-02,1.793412776835771535e-02,-7.743692092986276254e-02
2.920292465442000940e-02,-2.293796514153561596e-03,-3.016995041986228476e-02
-1.752539654665417890e-02,-8.973030838176386526e-02,4.437663323522428316e-02
-5.074171155473575570e-03,2.312357633296023562e-02,3.300987474369930508e-02
2.122121025587701132e-02,4.122779939083304201e-03,9.236741262701970989e-03
-4.203077739938233109e-02,3.329152849141352871e-02,4.517748223141040270e-02
3.891952889999176352e-02,-1.621548826563664475e-02,-1.523518173829543909e-02
3.129840080958442433e-02,-5.729576664877426839e-02,5.056447632493769190e-02
-2.963155189771901968e-02,4.992111613507276696e-02,1.815834649097724032e-02
-3.020423317284988158e-03,1.098965781225410892e-03,6.811412069972448691e-02
-1.744835500032614062e-02,2.015982718834778004e-02,3.979912945721755801e-02
-2.425983932026242601e-02,-2.172098916196829252e-02,6.920852783896432048e-02
-2.851920323598208101e-02,5.032333730271330852e-02,6.622260503391470821e-02
-2.954088783135975713e-02,1.150734692783736968e-01,1.810011938313565993e-02
-3.300944898868550526e-02,-2.973548421514146667e-02,7.593016381258475833e-02
-9.919382604484614299e-03,3.125204921948314396e-02,-1.311056441705337958e-02
1.048354282742222296e-02,-4.461043044724549191e-03,-4.354063720908946111e-02
5.658302898399005833e-03,-1.921350216799286303e-02,2.359851051986052231e-02
-2.044223478731161531e-02,3.835126759603366131e-02,5.146040231120346808e-02
3.169443681653445061e-02,2.822427495961078378e-02,-2.959274451460502942e-02
7.469352368749238892e-03,-3.621556826696377320e-03,5.106732365107485849e-02
-5.135974305438766735e-02,2.868369444137310043e-02,2.019485846955190234e-04
5.747633867126789031e-02,-3.862723377184892892e-02,4.250414148294173050e-02
-3.809496291628865217e-02,6.181873785430413472e-03,-2.254420339013451027e-02
3.145876847805835486e-02,-2.286588504723216855e-02,-3.123741178123604079e-02
-2.431034085643059631e-02,3.563585518971119220e-02,3.349211840707752488e-03
3.125597680787116361e-02,4.240359198005587416e-02,4.121064991396617555e-02
-3.802967083483924093e-02,1.296754952600371290e-02,-1.363215429510558283e-02
-1.676800736267967593e-02,-5.258339946292916317e-02,5.908040552573357723e-02
4.251051020378246448e-02,-1.677716186639622697e-03,-5.888218446116431741e-03
5.197889565149699936e-02,3.738613879473577650e-02,5.647777392292771537e-02
1.323088203901980585e-02,-6.504214059634975953e-02,-4.725161524480084307e-02
3.055547794044541007e-02,-6.879770058574674607e-02,-1.465553773896953460e-02
-1.438536664822097008e-02,4.653256315901174722e-02,-2.914437317322511253e-02
3.341268972046000651e-02,6.353254668568150514e-03,2.457973265269350685e-02
-6.458669213861290004e-02,-1.473415026169231853e-02,-7.141131787098609594e-03
-6.585167609941446065e-02,-2.227353412986630976e-02,3.410829002484738314e-03
-3.007646719608086938e-02,-2.616135388116031944e-05,-1.068937797160886792e-02
-5.730766551923767958e-03,9.894895013178284238e-02,1.083408312871947735e-02
9.743320970192509423e-02,1.907572725463890784e-02,1.640474528653702684e-03
4.363963329385886492e-02,-4.775969496290036198e-02,-3.392806329492996376e-02
1.613136121577942415e-03,9.327385749102848345e-02,-4.675392818527293604e-02
4.541264664467845914e-03,-8.094329202661086631e-02,4.063973189415576170e-02
4.427426123219999760e-02,7.370225189480113237e-02,1.660491591762870006e-02
-2.415862495663489637e-02,3.975557700185059634e-02,1.398192213293984743e-02
6.762582113908913173e-02,1.625095831138529887e-02,-2.179919236659054113e-02
1.313503986075767634e-02,-4.197529681258400924e-02,-4.261133589207780070e-03
-3.349081678234148984e-02,5.956912665373224891e-02,1.862500497396022900e-02
4.590860276868494183e-02,2.928836901937734508e-02,3.989703952117999719e-02
9.081635022344837493e-02,-1.387588173108699439e-02,-5.451397851206882250e-02
-4.817336489572902197e-02,-5.060068346216548690e-02,-2.254559034472799692e-02
8.468038472986079424e-02,4.373366031730416964e-02,-3.273313309456615111e-02
-3.688441460521027504e-02,-2.980846874629356977e-02,-2.876377927610606830e-02
1.229115624119987357e-02,-6.811791857356908064e-02,9.494386324506911418e-04
7.908130770373195118e-02,-9.068617269074286114e-02,-2.202343906773119794e-02
-4.830055089734407170e-03,1.025094927609648127e-02,-4.984387925271641095e-02
1.839392706213591883e-02,-1.445974133372610326e-01,6.969711758493903064e-02
-2.235661135776607911e-02,1.610680192313240083e-02,2.671448195106132517e-02
-1.806833986674010253e-02,5.065513724230153586e-02,-3.611989225136977288e-02
-2.262430205857096643e-02,5.733579192163410637e-02,3.268755708333750953e-02
-3.816951121432395067e-02,-3.283865168359569042e-02,9.932221085142998313e-03
-2.963222192437476449e-02,3.221591589795175237e-02,-2.487333203843261620e-02
2.577420285546296388e-02,-4.396601925013288864e-02,6.018575135942431237e-02
5.206890394728009436e-02,6.147326707493030312e-02,2.027886227727104113e-02
6.624263771252783019e-03,6.741711650990044047e-02,2.251791353872503038e-02
2.919185508351254330e-02,7.346398515768023940e-02,-1.764338989252944509e-02
8.184434675390912795e-02,-3.577375960444006270e-02,2.779151687313617669e-02
-1.005526180725891706e-02,-2.905805879401767572e-02,-2.182383685575966636e-03
3.325442044396304843e-03,-1.510622575227423166e-02,-8.477667602437647873e-03
1.375817774976794902e-02,5.052732817065748276e-03,-9.129597960895194722e-03
6.112898849058567667e-03,5.247200168127057890e-02,2.793168306217622392e-03
1.317221708753760039e-02,-3.883168693841836799e-02,7.396564334295217813e-03
-8.958230703379307241e-03,3.961550108670550824e-02,6.082860354533557029e-02
-6.951964800430844582e-02,-1.502035104876086290e-02,3.178596743633638894e-02
-4.841035477372310908e-02,4.105095977270404456e-02,2.574378529153349346e-02
-2.395349219595309387e-02,-1.616858250960903978e-02,5.926855959466338815e-03
6.387226166553398865e-02,7.681357357084529769e-02,7.102699630965939731e-03
-2.322033439930631937e-02,-7.853527908954079876e-04,-4.160832667522578604e-02
-7.877847530422431299e-02,-7.423646109944560811e-02,4.093001363188884106e-02
2.388321346490470884e-02,-2.631604433651061128e-02,5.985719372946943229e-02
-1.519270909819167917e-02,-2.949750512137755756e-02,-3.662079198424694065e-02
-1.446015138750713323e-02,5.144276890334022884e-02,1.054263290647100039e-02
-5.111719668396526306e-02,-6.255307427447195923e-02,2.315136507948321876e-02
-8.977967789551029310e-02,-2.993678035470736729e-02,5.200068094748096226e-02
3.054475732254474662e-02,2.098311329292192745e-02,-2.671291829680081178e-02
3.955993026362607246e-02,-2.889241213610327375e-02,1.343572617126938783e-02
1.127428042578579488e-02,-5.370931903919335532e-02,4.009938995572965431e-03
2.449410154117797125e-02,-2.477897066551080357e-02,-5.746327099668003743e-03
2.765334062635957987e-03,-1.538571044192949856e-02,-6.945086830441530266e-03
-2.050994508193905441e-02,-3.081887713295575898e-02,-1.246124858995585269e-02
4.903126190285359703e-02,5.930243460419933749e-02,-3.271102060653566929e-02
-6.520575479199515467e-02,9.312156181156799883e-03,-9.552187469043915691e-02
-4.485098672537456144e-02,3.800519291876622296e-02,-3.454898457033196701e-02
6.516643176486534850e-02,6.935611147033286794e-02,4.393267532694838939e-02
3.159884493003815853e-02,-5.243959601794938828e-03,-5.062069508040718119e-02
-2.963557277584089392e-02,-7.629676901346704038e-03,1.428054363924160727e-02
3.677271289467640841e-02,-1.062266129483117189e-02,-1.295290203656645177e-02
1.741009352345046848e-02,8.372549047381183662e-02,4.326138529225321411e-02
-6.144323387143996867e-02,4.085416714728294652e-02,-3.075788840773125213e-02
3.084921141926480134e-02,-1.122595617249437516e-01,6.329779573998021991e-02
5.866111539306540640e-02,5.287519615811819146e-02,3.772081980246996119e-02
-4.551625563441627671e-03,-2.089583497252588476e-02,-4.957061612943846479e-02
5.905445255007969740e-02,4.488368362933616018e-02,2.937789005790474115e-03
-4.422854351265623207e-02,-3.299234923848314710e-02,-4.779681455519133731e-02
-6.136618896753369412e-02,-3.953621681586606817e-02,4.104054805429376007e-02
-2.241391426254043390e-02,-6.086064844873521895e-02,4.566996979768820145e-03
1.288547480861672659e-02,-5.915406496394447038e-03,-3.076582741951704517e-02
-5.792715142703311337e-02,-5.015981403806194297e-03,4.207456870514695094e-03
1.739632223400414471e-02,1.642474600473034507e-02,2.076110740483915265e-02
6.337470361500641483e-03,4.057606479897278573e-02,-8.988125864948295907e-02
2.042284335542198306e-02,-1.362295202616637009e-02,7.554482176591456252e-03
-6.404819243358584983e-03,4.650379056863293559e-02,4.199454244420838117e-02
2.188855035158725898e-02,7.890439460961292534e-03,3.329007146465255695e-02
-3.853294659608291328e-03,1.027392108886197516e-02,2.642078980090470375e-02
-5.292268034071979932e-02,-1.082177194703402325e-02,4.261689364159983867e-02
-1.161273131877734420e-02,2.465499285431803703e-02,-4.968808548080793329e-03
-1.686884298739282917e-02,2.284549028688421385e-02,4.444906775762793617e-03
5.564027402758817825e-02,3.990401523544561541e-02,4.992576527045603646e-02
1.057779512485374808e-02,-8.610246331836379774e-02,-3.918141635674533829e-02
-5.215189503427541950e-02,6.880085616698818074e-02,4.484337186817111132e-02
2.810472790662924512e-03,-1.526271097322567070e-02,-1.384777292412816413e-02
-1.938518006700961846e-02,5.625997090604226841e-02,-2.220794571328173553e-02
-4.972662570967424644e-02,-1.906425999295874568e-03,-1.520077063066113850e-02
3.256511918943121725e-02,7.373189367402091521e-02,1.510980646736044195e-02
-2.457181706967946980e-02,-1.699884207590075802e-02,4.545492544512986371e-02
-1.761183961886480034e-02,5.627685227968477755e-02,-5.255734779073290702e-02
2.330128537435798008e-02,-5.918551291407277842e-03,8.512310715206988787e-02
-1.609888031294020097e-02,4.779275368040479532e-02,-9.729252053599632410e-02
-1.133264879594247758e-02,2.017235100330248138e-02,-2.281747056975947166e-02
5.217940320808774762e-02,-3.661912752782170433e-02,2.792101700621633931e-02
-2.996255553953972028e-02,-1.604621379394194705e-02,1.064130514540543616e-02
-4.515277147584403905e-02,8.568664576288119450e-02,1.164746230223164397e-01
7.282090484412952203e-02,2.157768258209057100e-02,-8.465567496474189768e-02
-1.866124178146041576e-02,1.012405267053343577e-01,-5.431280174988391968e-02
2.967849727427558995e-02,6.029168958298952025e-02,-2.935458681091602379e-02
9.117106252678856826e-03,-4.314656606850306164e-02,-1.551607982432871152e-02
-3.750667852257058565e-02,3.630566224044818463e-02,7.179315384159574986e-02
-6.399410205255208137e-03,7.071046095225773376e-02,-7.178484025544333742e-03
9.050344422522971569e-03,-1.186339571113487722e-02,-2.562729739571081508e-02
4.935756324302441322e-02,-1.677065155814964816e-03,-5.658427737230335014e-02
-4.614181212310519697e-02,-1.909100185435061436e-02,8.107739839497965506e-02
3.885177175953248574e-02,-2.438315703297856338e-02,-8.470991883432375802e-02
2.087545177532881477e-02,-1.078667947219803108e-02,-2.829747645961374833e-02
1.259428225173793957e-02,-1.892029129150247027e-02,8.331465284851437281e-02
-2.104778770783666958e-02,-5.216353549461266031e-02,2.641495049233424236e-02
-6.555833507914575475e-02,8.356933299375644830e-02,-5.549025099098379987e-02
-2.473050969654010806e-02,-7.596190688034511196e-02,-3.420549617966532618e-02
-7.171071862815452114e-03,7.126136981975793143e-03,-2.921693132134816143e-02
-1.558380030877217458e-02,3.110373556790212504e-03,3.265006613625838494e-02
9.500153918793381724e-02,1.204812300227814354e-04,-1.531224675040733854e-02
-3.005395758268800815e-02,-3.792571885396691517e-02,-2.549444648682103881e-02
-2.518593674488743897e-02,-4.739206977912951979e-02,2.707981786937313159e-02
1.403648313324812151e-02,-4.250061116585254761e-02,5.472623875760448953e-02
5.387647893820209782e-02,-1.070388884500952063e-02,2.311211662984091319e-03
-8.593432840427297006e-03,-8.932864712885839331e-02,4.516276364219424383e-02
3.427128694447229961e-03,-2.307008302811465808e-02,-4.528501791299865964e-02
8.721474107472626525e-02,-6.981253251286557993e-02,-4.314489794886400276e-02
2.086777110207321123e-02,-2.314948000591641325e-02,2.633183166783707035e-02
-2.293232305927120698e-02,-3.028907823925870019e-02,-1.066874936229840476e-02
4.731637684814933575e-02,-3.765621151552753232e-02,-1.910255942515488511e-02
2.273415069302271805e-03,2.803646258250367534e-02,-2.621093729082524595e-02
4.625034711032022933e-02,1.893671789611034439e-02,-3.315395535006697425e-02
7.211830605648844594e-02,-2.973685049951886594e-02,-2.747262205143743627e-02
-1.376126191669282961e-02,3.844725587217513881e-05,-5.140058172246998215e-03
3.823793454674286052e-02,9.576350014027527890e-02,1.922961481793579105e-02
6.537373025535808679e-02,-8.239136616964576332e-02,-2.390056752561256492e-02
1.400162451863819907e-02,-4.324168823143170574e-03,2.066163026282873648e-03
3.675886900175362459e-02,-1.201016930183450120e-02,-3.226973657853285382e-02
-5.017394812539894416e-02,2.090903969934457957e-02,-3.290177712104840058e-02
2.877889734897000340e-02,-5.121534445108636563e-02,1.378785312680910931e-02
-5.336002622275577006e-02,3.739589354199173658e-03,4.829429370198849020e-02
7.141596619596277985e-03,-2.868628858208702170e-02,-1.722834339196805536e-02
-2.469339757849947636e-02,5.279117197963802827e-02,2.514618965936935360e-02
-3.700143223854039654e-02,2.651687267292852229e-02,-2.809084129136292258e-03
2.214438503439199527e-02,-8.606578228180135348e-02,-9.022100194831739195e-02
-3.584150460367480084e-02,-1.613929592254800469e-02,-4.764818505849081898e-02
7.049228374004025410e-02,5.199173453671336251e-03,-3.737068665436116266e-02
6.510937264315298789e-02,-5.217735945325439884e-02,3.112795317343800341e-02
6.657933881474643878e-02,-4.855802319560116598e-02,7.141274181507799301e-02
-2.348090949696775634e-02,1.541176599277632210e-02,-1.094323366224628225e-02
-5.667292559581555561e-03,-8.107513219112119293e-03,5.104302049474328251e-02
7.277745818853252613e-02,7.527059643449008491e-03,2.041550358245042968e-02
7.910091232303290490e-03,-6.851838432546580870e-02,2.342407877960664062e-02
1.453635383350477227e-03,1.017866741887755132e-02,-6.348162874947420320e-02
-3.806030257262206506e-02,-1.267033113897706731e-01,1.108678660881813605e-02
-8.149198424344712005e-03,1.595104984536354839e-02,6.385464125134068802e-02
2.012848116311690208e-02,-3.401934454303556093e-02,2.343353847957003327e-02
1.975000956543043404e-02,-7.182547777554736806e-03,-2.031379262849622100e-02
9.829788287345106804e-03,-5.709194234624030695e-02,3.946142755567325078e-02
5.509114816050426217e-02,-1.652659416963239009e-02,6.763303625792028984e-02
8.092587873139774068e-02,1.745225236762610807e-02,3.711729475112040405e-02
-3.987052103716292109e-03,3.111686132325443624e-02,-3.279531047836074104e-02
2.383026419548237365e-02,-1.157101115042345751e-02,4.579200557491550777e-02
-4.489012400998761837e-02,-3.414043420964989889e-02,-1.313579828697505024e-02
-2.084162239007514295e-02,-9.009687258252681991e-03,-3.287232219741324703e-03
-4.787533610796494178e-03,3.548044326593603748e-02,-4.116093201071508584e-02
-2.915280302289913889e-02,1.496188108741433685e-03,2.994898021537246643e-02
3.936799686487463257e-02,-2.642939060972017765e-02,-3.887534455667958442e-03
-2.555204801716252569e-03,8.309787059295796474e-02,1.822573638795566345e-02
1.942239224233591882e-02,1.784907662739763923e-02,1.296016871693276597e-02
4.383143795392049902e-02,-4.946154752159475504e-02,1.981587996687058165e-02
3.599324713550924176e-02,6.751155068082123623e-02,-2.107717819374468199e-02
7.297708545728454586e-03,-5.362253946754400036e-02,-2.507651211882896969e-02
4.889956362099508354e-03,9.015803346134000640e-02,1.793044515841470468e-02
-1.105139438398662459e-02,1.668098515647826324e-02,1.649631513922864001e-02
8.823415339272245098e-03,-3.216201080810626028e-02,-9.404149362581821006e-03
-1.459390462742658073e-03,2.386855882061000422e-03,1.931189908485255596e-02
-1.774693384132566831e-02,-3.004970926009396109e-02,-4.498126576048992048e-02
3.776087045757253041e-02,-1.841601296193810106e-02,-4.975656776253305213e-02
1.592031150347977125e-02,-3.588944775817558969e-02,-2.052461671068159937e-02
1.706295851412806611e-02,1.423405714164057301e-03,1.507154205731464983e-02
-5.789553885261527338e-02,-8.372166334184766301e-02,2.023895761714037712e-03
3.943157792814063617e-02,-8.232676114198050898e-02,3.135146790346494267e-02
2.298042802784945951e-02,-5.769990547481342047e-02,-3.839398019202375917e-02
-5.982006859187274928e-02,-2.118874545245222341e-02,-1.281283773570412315e-02
3.407641604845511318e-02,-1.682904143400019981e-02,3.829223875902219160e-02
-3.171409651243949079e-02,-6.899086389915115580e-02,6.009035694882063072e-02
3.285035100271376657e-02,-9.942921028512299864e-02,4.276562850795857101e-02
1.030431810644903134e-01,2.923835562808428309e-02,1.740570407061081334e-02
7.354987350485442388e-02,-1.017188497218898986e-02,5.478960945855834708e-02
3.679329784710832357e-02,5.516403852303457950e-02,-5.619634317917322763e-02
-4.102571594030811342e-02,3.115072962367418721e-02,2.863966242448175159e-03
-2.874105133912153998e-02,-1.917068816461363215e-03,-2.000617573305643951e-02
-1.554426751451356246e-02,7.852588648119016024e-02,9.823757905942004376e-03
-2.360347147204299584e-02,2.759732223130576933e-03,7.381050774430089612e-02
-4.582357068265003469e-02,7.637136627661936239e-02,1.217208966476393019e-02
-9.750285637159378238e-02,-1.071626710859288345e-01,9.900688833244403533e-03
2.780398041624254288e-02,3.180181914698920059e-02,-6.571751371499343075e-02
4.167065187763489831e-02,1.863642682796994715e-02,5.476415069284432807e-02
-3.540156581978193273e-02,-2.880725194638337344e-03,7.746161778255449340e-03
-1.248720218752351896e-01,1.068524005021186454e-02,-1.991856038800249654e-03
-1.657709472581194235e-02,-1.874331116682176335e-02,1.697722697300101460e-02
-9.267958569589672055e-03,-8.209325255839176882e-02,-5.615169535301383491e-02
8.358946241794602827e-02,-1.117115303100363506e-02,-6.088005912891893655e-03
-1.138422725472330475e-03,-4.373916846589206227e-04,2.860315118125685702e-02
6.191885969758079838e-02,2.649182544962244007e-02,6.246518097405693443e-02
8.133581832558475777e-02,1.457116082834586379e-02,5.209639806044239624e-02
3.904524589864773187e-02,-3.183490523263977912e-02,-1.635455884670331678e-02
-6.043235422041878325e-04,1.845797302688742189e-02,-7.415585065494346984e-02
-1.703394624532525740e-03,3.824291554747164673e-02,-7.338422054500399680e-03
1.324001040040231718e-02,4.746663756955725455e-02,-5.641001439308450383e-02
5.075486548159077954e-04,8.532564418535445311e-03,-3.063996606903495248e-02
-4.076644719611205447e-02,-4.510107059793395240e-02,-4.730798568231111938e-03
-3.983200915289338701e-02,1.955674065299119885e-02,-3.092502287579568243e-03
-6.941216751951112540e-02,-2.479997277774900147e-03,8.124646564572016172e-02
1.052869813662720283e-01,-2.154512489677145801e-02,2.454787464943980826e-02
4.436105433352720978e-03,-1.509685987757954095e-02,3.229200150184571155e-02
1.566310857309730423e-02,-5.347611295107752849e-02,-4.620200218664671787e-02
-1.766995482913293405e-02,-6.016700385136952017e-02,3.115545105994316916e-02
6.296217875034519629e-02,-5.550889290138617815e-03,6.281913520277956908e-02
-1.575236613446017939e-02,5.237100613613069472e-02,1.679204679415078477e-02
1.721294701218551489e-03,-7.632061657206030796e-03,-6.908086418833514486e-02
-5.428125191207941458e-02,1.781007194027320675e-02,1.827520000658878780e-03
1.259874818388522118e-02,6.700087910726582052e-02,3.409186919118790959e-02
5.267217947357122343e-02,2.422821861525824988e-02,2.418110643949999278e-02
1.750469229424336456e-02,-2.272713987123590670e-02,8.601108643553205188e-03
1.122636279402606380e-01,5.096943572341678524e-02,1.268065431117083690e-02
4.183040868805001922e-02,4.003660826804587500e-03,-1.495667571839257720e-02
7.312179944484596683e-02,-1.012282150247156842e-01,1.366039053712341314e-02
9.742617932620375749e-04,5.448569454934147627e-02,6.106914922045715566e-02
4.084035280781610905e-02,4.208481502745296809e-02,-4.133243883797108054e-02
1.343881076235540562e-03,2.153029617260814044e-02,4.151140211125314838e-02
-8.816641817870417286e-03,1.902992447767869492e-04,-7.683537164716976002e-03
6.376888662556402798e-02,7.754813062156175330e-02,-3.758959098747879923e-02
-1.737840649332631979e-02,-9.864671779852252857e-04,1.017847284408916926e-02
2.894909330205326994e-02,-2.399845459787872809e-02,-3.797673724599897466e-02
3.165891297414473449e-02,-4.916744529779575046e-02,8.274952201024542153e-02
-3.279087023331826029e-02,2.986592699106445717e-02,-1.825419432372692857e-02
-9.475688023774549509e-03,-3.356070201693392950e-03,-1.900462561622721230e-02
-8.223292852842041881e-03,3.065213454830708478e-02,1.549898877966311705e-02
6.742075619574640008e-03,5.534888150541421303e-02,2.863721666069723309e-03
-2.511585698511177231e-02,-6.532955769964027271e-02,-1.932139079440024776e-02
-4.071801755153864333e-02,-6.440798855957842461e-02,-4.072148452832575344e-02
1.076441634815900328e-01,-1.191314642904218839e-02,-3.294508693394259530e-02
6.237109793434858496e-02,-4.467576671513988351e-02,-4.705395080438188465e-02
-4.197442386989097551e-02,-7.025274110157671281e-02,-2.517828882063646856e-02
-6.079999484236611740e-03,-6.361940398136509134e-02,-8.799572812587887205e-02
-4.578472666145572134e-02,-6.602643252060874657e-02,2.831360868138720413e-02
-4.587323202293386998e-02,3.758864489214281540e-02,9.775035835075244692e-03
6.409331384951819088e-02,2.830509429873198299e-02,4.081968298820367463e-02
6.253866904793174697e-02,6.521805154249385450e-02,-2.722002889673930722e-03
-3.540459246796195166e-03,5.201781285493466828e-02,5.059456861783068193e-02
-1.091953879047548037e-01,-2.692809430327923470e-02,-2.859314276483720246e-02
5.292156314111465254e-02,-4.887344602744052996e-02,-4.082924136758614431e-02
5.697172924950760775e-02,-7.995865897322536331e-02,9.646596269234962787e-03
-1.629733359418164551e-02,-6.115429286048911471e-03,4.911027330510289030e-02
3.398728118587395625e-02,1.173585819377285545e-02,-8.977537069321753910e-03
7.102295059172368530e-02,-4.350911326597770024e-02,2.531303671939984234e-02
-6.023783995056362223e-02,3.940493983049033616e-02,-3.213090880852886855e-02
3.715637077656510495e-02,2.527489458129523331e-02,2.349678097493399995e-02
2.728443894034237108e-02,-1.826609834285310152e-02,-5.069305296736803176e-03
7.918702452897405375e-02,-4.217996410755640857e-02,3.733199542545374144e-02
-2.649666753060018337e-02,1.256918977723609464e-02,1.615523941353040963e-02
7.231987588468478945e-02,-8.901053076600834099e-03,-4.974112732132158349e-02
-2.323612822373552142e-03,2.469299589935476311e-02,-2.637136157202553052e-02
1.987283687784867359e-02,2.830742308494928541e-02,2.192252522331625438e-03
-2.141396032768422622e-02,-8.248939691914973504e-03,-1.873516403018934268e-02
-6.507218224851755994e-02,-1.510510715661090957e-02,6.117886513929931061e-03
3.469036277900721960e-03,-1.673883752685772011e-02,-3.811372691677891722e-02
3.968031877866572132e-02,-3.268715812371715199e-03,-2.282989711114830414e-02
-4.014097856079042181e-02,-4.600147349851400891e-02,8.013808494148936049e-03
7.583693736302624111e-02,1.755007327862312741e-02,-3.595957111319650346e-02
6.009715422929938489e-02,-3.180633652922573718e-02,-4.520279396984588915e-02
5.617267346297314529e-02,-5.113087406652867123e-02,8.461530998186084229e-03
3.677255048988128244e-02,-5.780566480421337047e-04,-8.272826074297200127e-02
1.075753581668726158e-02,-5.821106212389148826e-02,-2.211155683237412545e-02
-5.844126937273167594e-02,-1.962149235785671728e-02,-8.741931027284524994e-03
-4.595534425405140011e-02,-2.118162113095227103e-02,6.926942065583467645e-03
-2.485470930685459989e-02,-9.533084553632548488e-03,-3.182009967501036457e-02
-7.768919770108828615e-02,-3.296549700393898441e-03,-3.084228472501002183e-02
-5.363233733488842470e-02,3.486291597966158229e-02,5.239773987851568428e-03
4.896685429809478213e-02,-4.225504741498305183e-02,-1.875576331025067406e-02
-5.334897358580979916e-03,5.254932463458500402e-02,-7.965901520594036167e-02
-1.475158669385619810e-04,-6.042809361862945539e-02,7.573748129583572630e-02
-3.987590074050177680e-02,-2.424747519204208113e-02,-3.359502720148671573e-02
-2.741533733488831729e-03,-6.063059141462801525e-03,3.964956298226003650e-02
-8.758664718269713878e-02,-8.501086050732055421e-03,-5.639048252040113757e-02
7.625245905195361662e-02,-2.548579653112189453e-02,-5.538709868629772270e-02
1.647723976016501543e-02,-2.589058003985754072e-02,3.103147905093592632e-03
-4.791234989507332093e-02,-5.703500738748867177e-02,-2.739770242623090421e-02
-2.912168623937495468e-02,-9.159071387059550609e-03,-2.689327930353837756e-02
6.520887494122684647e-02,4.864634671457709891e-02,-6.199340403762809704e-02
-5.753919786175129558e-02,1.099142299884278869e-02,-2.475804936657230795e-02
-4.132059765134012130e-02,-4.849894340019009903e-02,-1.477597864543301123e-02
-7.025983591402696314e-04,5.724519176657272973e-02,-2.381477064634831761e-02
3.345510953907898655e-02,3.047049160503124271e-02,1.654405215049601502e-02
1.434039887215223484e-02,4.363206318755755847e-02,-3.491917100902583448e-02
6.983289400373604572e-02,-6.285560538735508740e-02,-3.056763668031380402e-02
-9.416922000005462090e-02,4.633868208551603259e-03,-3.271173584845692844e-02
3.027739561710989652e-02,-8.563725053581973390e-02,6.060851987582110273e-02
4.527603917078567436e-02,-1.299389662267247565e-02,-9.089938540332556660e-02
2.160687170533848872e-02,2.980276670991148513e-02,-1.899120248405096857e-03
-8.581069126289093962e-02,3.792027069867373937e-03,6.142002874237820209e-02
2.726714679325638324e-02,-4.767515582470405189e-02,-7.825826854607327576e-02
-4.903016528934386886e-02,-4.127318009912916974e-02,-3.013117120978151594e-03
1.594907343431457760e-03,-4.684233846281803115e-02,6.720876682781963540e-02
1.250790670508671737e-02,2.079939026532998114e-02,5.440211606012462786e-02
2.590341447061504654e-02,-4.837439797594433877e-02,8.276600369288301604e-03
-9.114883720834618397e-02,4.588687061689083330e-02,2.095673893556572812e-02
-5.518687561068200999e-03,-1.004012773312268209e-01,2.711068516209869453e-02
5.752596864024270111e-03,-1.021118796539769238e-02,3.084236900915904994e-02
-5.184528799195706195e-02,2.150399438603604191e-02,2.643542530678199068e-02
7.552598676014973811e-03,1.376409401669500231e-02,-3.346843358662456719e-02
1.489944762549189755e-02,6.092135170990421733e-02,4.344531716818923750e-02
8.147677814739515134e-02,-1.421824576656870349e-02,4.587701750614562451e-02
6.542778318288544614e-02,-2.180410783674573832e-02,6.132474596429794006e-02
8.075595449999661835e-02,2.658700746288033059e-02,-6.030823484396649614e-02
-1.413893683348449726e-01,9.446195676636910676e-02,4.587381748944251159e-02
-4.631167009371200960e-02,-6.105534234096343660e-02,-6.330751440366594665e-03
2.786087759061317212e-02,-1.584199164969234824e-02,9.334207692018470920e-03
1.539806051099749593e-02,-6.519429244112283361e-02,-7.104975138578873556e-03
1.774048357503377887e-02,-5.492463994450951653e-02,-8.059282176377775830e-02
-6.778724124271201523e-02,-2.135629445879049654e-02,-1.049641789817948052e-03
-3.314101521767119640e-02,-1.953287001577266521e-02,4.350906221653385447e-02
-5.703743541328101102e-03,-1.989243987961804294e-02,-5.555605664902918406e-02
-4.410157456494784300e-02,6.683717337745032072e-02,5.218595578145419911e-02
1.927155828550399311e-02,2.367614796814121111e-02,8.897658778472915600e-03
-2.616923165697973563e-02,-5.406744649556061155e-02,4.366838013913673655e-02
4.999003969232959643e-02,-2.989671219335077526e-02,-5.717343731577927829e-02
2.366334070606379916e-02,5.484779196002154134e-02,1.359069440231349887e-02
3.524150253983899389e-02,-7.441804689496893388e-02,-1.299389779764759285e-02
1.923486829598872877e-02,1.600628240092220531e-02,-5.759559693936244784e-02
-1.847413909050664091e-02,-6.119291358983264262e-02,-7.475883839666533359e-02
3.891453828807899668e-02,-1.749462363095730458e-02,1.886877547047006651e-02
1.461493589639385401e-02,6.394023119401515132e-02,-1.709455043968688848e-03
-2.054484572270753526e-02,-6.483455167042817026e-03,-4.228618987920840233e-02
-2.400226549515244862e-02,-1.118132075180414305e-02,3.584146450176003279e-02
2.678299801741693738e-03,4.013957073939340703e-02,-4.416365503982191965e-02
8.015647083079217861e-02,6.971655126981008387e-03,7.357105775003880410e-02
8.667700743189299395e-02,4.114068223172759331e-02,-1.443094178171924064e-02
2.855928326341072507e-02,2.291146941147910801e-02,3.134354094882330077e-02
-2.723690882923598608e-02,4.101235656391396395e-02,-3.092370790845754003e-03
-6.285949439000908245e-02,-1.611004070677869368e-02,-2.122672985258571010e-02
5.319327331215740334e-02,3.225360130071530662e-02,4.123903732613438261e-02
4.788781947429880843e-03,3.566466949445161461e-02,2.487993845892424311e-02
7.782380559626686511e-02,6.404819489042233582e-02,-1.024702415316246229e-02
-7.828181229440403510e-02,8.645127031856408850e-03,1.283757157596891567e-02
3.706745226856879294e-02,4.836631198669848891e-02,4.467267854627369333e-02
-7.768317321625427263e-02,3.026387534113318331e-02,4.471135049544947698e-02
-7.482216412255197078e-04,1.731666385075391473e-02,-4.241346237993343787e-02
6.632205341465745307e-02,1.446487786876335738e-02,-6.260667553564526477e-02
-2.508089347617380171e-02,-8.769570586655321687e-02,3.121537795213093561e-02
1.259787605702133474e-02,-2.282707652505413728e-02,3.232332520018130640e-03
-3.191888156565647616e-02,2.419388267536852488e-02,5.565303135343480784e-02
1.629673193977044729e-02,3.566052154519761680e-02,4.801011564643156010e-02
-8.239596065854204454e-02,-2.986617439068490684e-02,-8.408806259182925735e-02
5.654127977813932365e-03,-4.530175144075841015e-02,3.204369066562456209e-02
4.356911525517940392e-02,-2.741897923183420765e-02,-1.419077855850744106e-02
-2.017207382618151773e-02,-1.263982506253128087e-02,-4.779084088074083553e-02
-2.670294349871206452e-02,3.438489415698438301e-02,2.179957241660441386e-02
-1.519300766577764451e-02,-4.553710463125991426e-02,-6.019678434950044565e-02
3.592295971260486831e-02,1.872186466108633623e-02,-4.684432623636243000e-03
-6.547227797033930256e-03,3.016399090951154410e-02,1.032249050522771050e-02
-3.183791881131944369e-03,1.840118008292175936e-03,-5.292866564407109828e-03
2.206668750756544950e-02,-3.840284106730276325e-03,5.669912255699296848e-03
4.983446818492209655e-03,5.118755536051599470e-02,-2.330638259986758318e-02
2.031166762878879040e-02,2.727069051168115946e-02,5.884351409039050018e-02
3.786529763215611653e-03,9.382648253729754251e-02,-4.364282788639857122e-03
4.797333541455412603e-02,-1.289649385848872301e-02,-1.948114695420316567e-02
5.566683984809203678e-02,-4.407766913751341026e-02,-2.858896537054595594e-02
4.710966473056232146e-02,1.598636007950576463e-02,-2.383337705110308291e-02
1.495119217537565701e-02,6.161538702938273993e-02,-4.445370253655853143e-02
2.628788593108718347e-02,-1.280927155975373523e-02,5.073266768207480848e-02
-2.345550109853592607e-02,-3.508404689704486268e-02,1.737686489668842718e-02
2.671246844934753104e-02,1.713600530568404681e-02,1.930163409651745876e-02
-1.023589366216186812e-02,-2.934102171944439220e-03,-2.725302574950061278e-03
-8.409903448540667972e-03,-1.171036177854372154e-02,-4.491086709299765833e-02
-6.416490765632163092e-03,6.126736152040103411e-03,-4.581931208054258742e-02
1.161442648867926260e-02,1.896932816525441490e-02,3.209487356370308714e-02
6.505145592828152912e-02,4.210675932658897169e-02,3.673227481994095073e-02
1.828603449460909636e-02,-1.178283613107722512e-02,-6.736094146756756162e-02
-5.176473136400121244e-03,1.075537831294034741e-01,6.403969662101535731e-02
-2.007688894362258739e-02,5.144476165246080097e-03,-5.661595016933481522e-02
-3.082752056385264575e-02,-2.011037714744578347e-02,2.518999608177521082e-02
-4.646452937011065487e-02,-4.449578173010781956e-03,3.561099343484171870e-02
-2.561656829224718060e-02,-9.476129713369347771e-03,8.226251902993326343e-03
6.924982500706101940e-02,-3.638628299538256006e-02,-5.050015330376400602e-02
-5.525250819297320738e-03,2.730929263577461241e-02,-6.307611593840681263e-02
1.419368621565751838e-02,7.947027214603710407e-04,-2.490832390041216801e-02
2.373469652035112634e-02,-1.410455734187563565e-02,2.296720156282500494e-02
2.927077243164351653e-02,7.407067339390607796e-02,1.526695361192695159e-02
-5.277234440389894045e-04,9.730597511093025441e-04,-1.712859248939840526e-02
2.373998871120698226e-02,4.425744310151594196e-02,6.865493549455399871e-03
9.301730282237195835e-02,-8.351589885453977041e-03,4.606412949761672093e-02
1.454144872387323068e-02,-7.230777295831242180e-02,-3.543160136932561877e-02
4.491575766518962273e-03,-3.416743168673752606e-02,-6.533891677008759821e-03
3.121459832733437800e-02,2.955538360177973993e-03,5.763417266046375748e-02
4.518558911575038667e-02,-3.674792596366620225e-03,4.903919919272205219e-02
-4.543357741440940539e-02,3.950099977220607878e-02,-2.252019568059634644e-02
-5.988949771480649165e-02,-7.323583823401850872e-03,6.845780512326307687e-02
3.748415051059283704e-03,5.123661801124468340e-02,-7.212407903702502954e-02
-1.583206251673096449e-02,-3.317705495047493930e-02,5.323100966747892210e-02
-8.115326040995213264e-02,3.292028157278806266e-02,-5.601989555834196999e-02
-3.903547974545766575e-02,2.440883224301030122e-02,3.576267881107355467e-02
3.583502136409524863e-02,4.923349144681039846e-02,-7.053584745859348137e-02
-5.012389590532326071e-03,1.184898762242457548e-02,-2.335519150076048947e-02
4.427175828606973867e-02,1.911331783338366189e-02,2.890083709383246477e-03
-8.857332156175481063e-04,-7.390289927150801852e-02,-9.890131387475709079e-02
3.683772226674396355e-02,-3.805595611585890076e-02,-8.204323628027743176e-02
3.667076949017877840e-02,-2.137551669354406311e-02,-6.619482001328755999e-03
5.131369191984991307e-02,-2.067750287082615462e-02,-4.388972354040540647e-02
4.694964926171713709e-02,-1.443408717001228199e-02,-6.569924508945214348e-02
6.564152413358832761e-02,-4.099405542207358588e-02,-1.888305418548008249e-02
2.436860444879804331e-03,-6.195982659154075124e-03,-4.631297221377250056e-02
-5.428031279026820921e-02,-4.236747420768420536e-02,1.790102701562903487e-03
3.430948982297128691e-03,1.929141427233050168e-02,2.226618848217473690e-02
1.802521910978059638e-02,-1.456437727898113668e-02,-8.226554944292387844e-03
-4.721167169123787616e-02,3.853925963339778493e-02,-7.774695125506235482e-03
-6.786584136095456798e-02,1.233761364066379707e-02,6.902843864111028738e-02
-3.491692032824435937e-02,4.512847977925979470e-02,6.876908404459010360e-02
4.950114057087486030e-02,2.336612265981150016e-02,-6.094309354047660124e-03
-3.504217059493840158e-02,9.955488397490845978e-03,-1.578020197257185356e-02
1.725925150458188298e-02,-6.263166106234625830e-02,-2.715492457470021839e-02
-1.596082138649627946e-02,5.661919869708619685e-02,5.820697717427698870e-02
3.310084961472833237e-02,-5.165311483772888623e-03,-4.130627954842751998e-02
-2.705241391108454199e-02,-4.581881789888551243e-02,2.767003795588567766e-03
4.808133294666627061e-03,2.400959823280077177e-02,1.367188250582838471e-04
-8.369387673304465314e-02,-3.338138512332463476e-02,-3.059457480464419787e-02
-5.527217300669835104e-02,-2.894080290183799128e-02,-3.968306511338219600e-02
-6.169281150259174618e-02,2.235134834128799444e-02,1.375399897632275346e-02
1.225094635158421527e-02,3.183121382098015595e-02,-2.394168137889670506e-03
-9.682428638867722481e-03,-6.354760331828050723e-02,-7.716994435727719120e-03
-4.250081280648129040e-03,-3.248083545382380449e-02,-1.947475729539611608e-02
4.745973437235650322e-02,-1.476639239360966888e-02,5.692799019867157001e-02
-2.610113012608143972e-03,6.623360840723210852e-02,3.646034500123234746e-03
2.393513963918396381e-02,-7.304439485895648787e-02,2.853808879021378295e-02
2.471639802234680897e-02,2.623423294896963173e-02,3.999959938449555892e-03
5.262754928361713241e-02,3.455153230243279000e-02,-5.098782683269185295e-02
5.019476240336535194e-02,-5.292924822239821608e-02,6.402668956714691051e-02
-2.157953389490574816e-02,-6.178035969199815319e-02,3.334137899294827012e-02
3.435550389171786873e-02,-4.718725204604805323e-03,-1.522099958653975668e-02
2.964159450885428884e-02,-9.180747877184877725e-02,3.575845097709791365e-02
-6.781247687647676270e-02,4.867664576058475245e-02,1.618587228717213462e-03
-1.775584395643649629e-02,3.131499072767222197e-02,-2.427490476546879938e-02
4.192011311008908558e-03,2.516292426346133232e-02,-4.951842340885856397e-02
2.648142419094435054e-02,5.441419217200187813e-02,3.030063740104287258e-04
9.970068562774181756e-03,2.333870361670015853e-02,4.404921628863515091e-03
-3.192669417526523140e-02,-2.772089741609195732e-02,7.193351010939708079e-02
4.620800973491628189e-02,5.774461813159488532e-02,1.177600360326817169e-01
7.988444951347836720e-02,3.424734491859938220e-03,-6.271788910171451070e-02
-2.773087956013051830e-02,-1.614817769449966578e-02,1.037054019153939299e-02
2.377224150859081481e-02,3.829933271483775686e-02,-8.014299104162211917e-02
-1.577154565865944089e-02,3.216619384131290393e-02,-2.991804752838631010e-02
-6.138022095762539314e-03,-3.042936485203116825e-02,3.684586366662061241e-02
-1.413524496313458244e-02,-5.918657132400169385e-02,-3.314627983855718274e-02
6.950912058421657982e-04,-8.376599707493194436e-03,-3.803909248842538698e-02
2.955267887354033271e-02,9.021208536591836247e-02,-1.631480854811852635e-02
-9.793676078530452397e-03,-2.396405045580808635e-02,5.101187770054960852e-03
1.996381451641103880e-02,2.001926878518527769e-02,-1.702656467637860688e-02
2.707682778017748287e-02,9.543766434797519571e-03,4.916539583391188462e-02
-2.118825122730726585e-03,1.771672839738500441e-02,9.674107354071287412e-03
4.435287607091092932e-02,5.053037456174843539e-02,-7.903781746320150126e-02
-1.965519147643406128e-02,-1.664736025799783831e-02,-2.961269382088920973e-02
5.273851159060167354e-02,8.416161163377901613e-03,-2.486702879278291159e-02
-3.916746656963140255e-02,-3.950428913353956455e-03,1.593882109101640507e-02
-2.237925476190563354e-02,-1.337245088047600561e-02,-1.820361363392482713e-03
-3.494007136652665241e-02,1.342020934876572008e-02,-1.503166633910732290e-02
-9.255991944688119269e-03,1.402588397328334742e-02,-6.317425496146029940e-02
-4.858929073405247878e-02,-5.963890907733671726e-02,1.756404805296488819e-02
4.184846888635372630e-02,1.614965609769777183e-02,-6.785227451685723991e-03
5.860151012910122525e-02,7.583584378349622450e-03,-4.232322849528935560e-02
3.556242226780843840e-02,-8.551551521433161523e-03,2.671698264629427874e-02
1.314244468323042024e-03,-9.160222729428270372e-03,-1.131096587885597679e-02
-3.595808200614360878e-02,4.849650880774323408e-02,-1.256251558729619931e-02
2.740760698425764516e-02,-5.705696221484901284e-03,-5.230186800517870604e-02
-1.364355759545333134e-02,-1.530597075909590800e-02,-9.821877785941941427e-03
3.215697140809282289e-02,-1.113734961738154818e-02,-1.433651232301818169e-03
3.935399713865716381e-02,1.772772660805520609e-02,1.445609243704215445e-02
-1.485867215665470122e-02,1.014562382321391489e-02,4.432133799775430510e-02
-2.788513458084544705e-02,-1.425008540448027003e-03,1.538941155266710173e-02
1.463128916367207981e-02,-3.451789577295492212e-02,-3.555254876962768429e-02
2.705328585474360559e-02,-4.773151582596209946e-02,1.028414402085865882e-02
4.305304312117132215e-02,-2.456195710733610413e-03,5.352984041272642463e-02
4.467310436680847763e-02,1.339947689091255598e-02,3.957187237831170934e-02
3.083714327173792819e-02,2.413007748514726762e-03,-5.069243565839035709e-02
-3.545479003963804970e-02,-6.717188824586797780e-02,2.486225021293889462e-02
2.294436370420860696e-02,2.854236682643925341e-02,-6.925689796011852417e-02
5.064619868588687152e-02,-2.775642003619656351e-02,-6.306906501235499431e-03
-8.507144606354240593e-03,-1.817705991552491865e-02,1.400693016659452193e-02
3.557125137676418747e-02,-2.804662095901027177e-02,-3.838968962614652120e-02
3.600566503696877446e-02,-9.649978728027598651e-02,1.333282624229879289e-02
-3.864168114371577256e-02,2.003444397243635267e-02,-4.086945686045947296e-02
-8.654169612634476927e-02,-3.886965782831167809e-02,-2.560875839603399956e-02
-2.821231683931407774e-02,2.518309965820560072e-04,-3.307617517420014669e-02
-1.540672452331057901e-02,-9.893089453565995228e-02,-1.287399707467881509e-02
-4.622675715228942439e-02,9.520889949054759521e-03,3.314437042675732331e-02
-2.814353028105157865e-03,3.808131712108980826e-02,2.588024896857283805e-02
1.613804883539917551e-02,-4.796107870680163532e-02,5.658168811253925894e-03
6.891261900666527385e-02,3.920126856816097405e-02,2.642979998850845946e-02
-1.803082699898335764e-02,-1.370887477605314472e-02,-7.081090412392490596e-02
8.307562650526154058e-02,-6.190267639914385361e-02,-8.380193061918005115e-02
-7.296511542755926283e-02,7.805111215342933582e-03,2.557567363437338384e-02
-3.909599250944815335e-02,-7.056384764746874080e-03,-3.798862033207877492e-02
-7.538767262151237387e-03,7.049235433025453912e-02,-6.228484730060659946e-02
8.835571800701007630e-03,7.565975150102265123e-02,-7.291119041669666401e-03
-4.194396435914839877e-02,-9.778094619927232140e-03,-4.004775180439834603e-02
-6.714483316714371652e-02,-1.445394966962419876e-02,-8.589161123127229958e-02
-6.382519395205937807e-02,-2.167974313544512865e-02,-4.804436006134101683e-02
3.147156463668616955e-02,5.589655632043256939e-02,-6.341567831363890961e-02
2.037614497278994116e-02,8.385342674829707188e-02,-9.683654553751580921e-03
4.713944763316029601e-02,-2.343248404760172026e-03,8.709667551969244026e-02
-5.216616366299996893e-02,-2.546399066499674662e-03,-1.265562906348338852e-02
6.058844652214794187e-03,-2.083963668427380247e-02,8.881549054402257740e-03
4.500187858698815463e-02,1.822704870851007269e-02,7.113907091766499824e-03
1.423160709565691844e-02,-4.521290274276376642e-03,-6.275185501575794578e-02
5.788016197514229272e-02,-2.147374587368259136e-03,-2.902917567374615690e-02
-2.448585937236778115e-02,-9.952720073952321667e-03,1.615102669207187785e-02
-4.079135585395662900e-02,-3.773017432661734255e-02,-1.601920009009987628e-02
-1.819710418010905481e-02,-2.760379454490162129e-02,-1.418594766032477313e-02
-3.716050416909805545e-03,7.107520381355883488e-02,-6.509683291490547807e-02
-4.506323194274919341e-02,-5.086760029809038464e-02,-1.630258696688776862e-02
-2.375881117348235469e-02,6.529439884168902752e-03,-5.198304011683415465e-03
5.371251763421686087e-02,1.867579497423515339e-02,1.666908933558166120e-02
-2.358178300764569336e-03,-2.961571038512193429e-02,-3.122464060860308255e-02
-2.882632073594042915e-02,-3.695459991497485747e-02,1.906865604726847366e-03
2.788547743990298783e-03,3.007701558088428373e-02,2.016341228823172529e-02
-2.027180909099341247e-02,3.125866913668166446e-03,3.264321334232236915e-02
-2.130298087238162441e-02,1.245725123570218945e-02,1.095545114780051843e-01
-2.600650321778087692e-02,6.044830865277053128e-02,-7.361872371896058254e-02
-5.196491403173091050e-02,9.823981669404594982e-03,5.918075836059202149e-02
6.685937177985276127e-03,-1.930398951101042204e-02,1.045345296582616268e-01
-3.316723664362433710e-02,-5.398763560796403238e-02,-4.816967299139966047e-02
3.886141143809461462e-02,-1.268687794043552204e-02,-4.166793780423607568e-02
-4.204328654532302895e-02,-1.762463534545448407e-02,7.327158147495251017e-02
-4.388536453972657209e-02,2.226182862852324126e-02,-1.918926295279928945e-02
-2.766392454124077388e-02,-3.936140461630601231e-03,5.858183775239416552e-02
5.812058121726720178e-02,-6.179354773332498829e-02,7.274722328860438840e-03
-2.080171219079060205e-02,-3.578815922194284599e-02,7.357560237100834594e-03
-5.453402074221434803e-02,-2.167081423556352273e-03,7.430867351335107129e-04
2.175463450304137777e-02,-6.629449496419841797e-03,-6.146550475628190235e-02
-2.151617327580902100e-02,-4.408177323874073322e-02,5.596091683198520239e-02
1.872420895515447548e-02,7.425831739195010162e-02,-1.619225664682863788e-02
-3.633145341288172153e-02,-4.190551027570495884e-02,2.815806056747424679e-02
1.129657226715015525e-03,1.640891397632069856e-03,3.219615303375904930e-02
-4.605063130747727440e-02,3.378002648232209665e-02,-2.030338371160649025e-02
-5.761784213586369774e-02,-6.192296114596852752e-02,-3.137780150234759785e-02
-5.892997544298149426e-02,-1.485481918088003665e-02,3.158553058679378078e-02
-5.190565215606448776e-03,-9.540441041271741085e-02,2.425472435022563503e-02
9.752000961661346293e-03,8.703550761187879223e-03,-1.702158434658012851e-02
3.598743194638952259e-02,1.819592551871355296e-02,-3.901486233317044694e-02
-2.470788113746212600e-02,1.058585984641671404e-02,-3.462131314737226101e-02
-3.280209586758705415e-02,2.200323088497653512e-02,-4.453887387976020878e-02
3.012250493435300949e-02,-1.601370669755424261e-03,-4.131043895479191014e-02
-2.463751044565663101e-02,3.005928498249465369e-02,2.994508139174013178e-02
-2.947580329829045144e-03,1.086773572275241545e-01,1.582682286584739806e-02
3.958188281346513432e-03,1.776234021501430643e-02,6.781274898054283178e-03
1.074569126417748363e-02,-2.064551224089019796e-02,3.199777798649121319e-02
1.176514886820353642e-02,8.680865375306644205e-02,-1.307313859099128867e-02
-2.948968911089965700e-02,1.897779748971463801e-02,1.942438036856885750e-02
-2.285520742144292808e-02,-4.970756574723914512e-04,3.324458118218777836e-03
3.406172051039427218e-02,5.001553771753182789e-03,-1.038176061471423640e-02
-2.220148306221975641e-03,4.787739385211448734e-02,-5.928633075182711265e-02
-5.766911226725072309e-03,2.429449083049690927e-02,-6.146505304432862624e-03
1.027472685051900453e-01,-1.173241328367709974e-02,-1.416333605191505765e-02
2.755040731653986621e-02,6.538414074616722728e-03,8.728418041541037911e-03
4.129742558048569295e-02,-5.973485119769640118e-03,2.915319165535757567e-02
-3.048695469566616023e-02,6.540542844666529312e-03,3.480232136179169707e-03
-2.665324894694292776e-02,-2.297165592757010461e-02,-9.120290924603791094e-02
-2.607815111450459758e-02,-1.851674443974598433e-02,2.121779548714663316e-02
-2.370887854868260897e-02,4.715316249504331904e-03,2.546125244287304398e-02
-3.366850477865597903e-04,-3.687902504832139480e-03,4.862472730368362639e-02
-2.862755931618030450e-02,5.646357599469910976e-02,-3.464823231579439861e-02
6.286464274829062227e-02,1.020657439324816965e-02,-6.289203647516392048e-02
4.314385208563460694e-02,4.336601030643130045e-02,7.287219653008851147e-03
-1.843042371897671630e-02,9.389593581005785047e-03,3.908313837455948403e-02
2.054880801441127253e-02,-8.770437006301380276e-03,-2.359909928588834610e-02
-2.325693875338982405e-02,-2.187667206848682364e-02,1.760749440705944302e-02
-1.454048078972978823e-02,-1.304154976193950821e-01,-4.502076264843042630e-02
5.360997484531890983e-02,7.904417107756024630e-02,-5.566387198142186410e-02
-1.419966220651025512e-01,2.077035212809539774e-02,8.092545886003370270e-02
-1.414564435008151648e-02,-5.148350135797058469e-02,-5.531082784631485318e-03
-4.913714945570038517e-02,-7.689654527592952593e-02,-1.656822292088797402e-02
2.036190741991596512e-02,5.673285679272072968e-04,-8.622289881588440785e-02
-1.874234667519713432e-02,-6.332111150829812518e-02,-1.794629854680768058e-03
-4.278722746212171996e-02,3.728234643727402348e-02,-2.823494833824707548e-02
8.753431417531404735e-04,-3.773318488821170158e-02,-8.047822699354774401e-02
5.396634283131901411e-02,8.499991540143579530e-04,-3.485539594923761642e-02
2.726786557966600841e-02,3.801567292010640114e-02,-7.867088773766997903e-03
4.296573300410219676e-02,-3.345829134424458534e-02,7.336287420720596919e-02
-3.360103106819519597e-02,-2.073338170842747158e-02,2.307343348610607636e-02
-4.989710422880867108e-02,-7.903908332118816937e-02,-3.916895869131816615e-02
-1.006913191544229341e-02,-2.924862076574774247e-02,1.352277399691579132e-02
-2.176422612372241536e-02,-5.968734214402824506e-02,-3.485353776435146794e-02
1.254019778025937046e-02,-1.258971577985397092e-02,-7.446030437956761318e-03
5.463429729791103966e-03,3.180950421203148498e-02,4.578008694586341992e-02
3.738826274665450321e-03,-3.047503047876738008e-02,3.113168298505319606e-02
-3.726763713799073541e-06,4.253040380409572364e-03,2.269897950016089294e-02
-7.031080951723395200e-02,2.076802716398591479e-03,2.659377709141341750e-02
-5.921427049227332567e-02,-2.892671799198206356e-02,-1.361442450002341674e-02
4.768800875558656255e-02,1.820898837165859166e-02,1.827337858338735216e-02
2.346820512270615666e-02,-1.936628062938878722e-02,-4.537413577568350648e-02
8.876658527003353227e-02,3.008651771582736278e-02,-3.201724572629563448e-02
-4.507133399497167958e-02,-2.050290419175632844e-02,4.344789746336761432e-02
-8.785515394893913393e-03,2.087230336906825690e-02,2.376241222099850781e-02
3.389653836991231295e-02,9.845531751663483266e-02,1.976669803308819459e-02
7.770960480788234592e-02,-5.856608693887652844e-02,1.869296487330059445e-02
-1.694113783882849125e-02,6.135841918007842871e-03,-4.201694796171410312e-02
-6.525395576039960677e-02,-4.093253734695222884e-03,3.919960605363830008e-02
9.788639039357990845e-03,5.425321611095389879e-03,2.301745018555068772e-02
3.448712222187280685e-02,-8.630936466744749958e-02,4.727290799662245586e-03
1.762886372073516061e-02,-1.307219262646568819e-02,6.364209767044559651e-02
-4.538409543412694203e-02,-3.205289253503611907e-02,6.128940991591819154e-02
7.317346623911034909e-02,1.724253572413098068e-02,7.310964237429867785e-02
5.059180705111322729e-02,-6.994419714812384614e-02,1.438573032595596990e-02
-7.033964128251850301e-02,7.292743895848817492e-02,-4.830489460352210829e-02
5.555771794710085559e-02,4.031016876584889164e-02,-5.773592124189873970e-02
3.525925384845741972e-02,-3.125966084171215298e-02,-2.550480166359262238e-02
1.133903694926271383e-02,1.873208000224613201e-02,-4.264874798831338326e-02
-2.736103916477134607e-02,2.808626853094928558e-02,4.878307955866698423e-03
6.835334625963725153e-02,-4.752247337039797181e-02,-2.507743390604414216e-02
5.127662815076003411e-02,-3.542663054757466679e-02,1.709561542914460330e-02
3.819923815513975862e-02,-1.724390179482999941e-02,-8.296273901433256007e-03
3.732050875489274083e-02,3.058620216179128853e-02,-6.138724853867704757e-03
5.897642082127268343e-03,8.507762409126437553e-02,-6.095423311277982543e-03
1.339169450056093384e-02,-1.888777196873971109e-02,-2.106359952171952057e-02
-2.439428394467889338e-02,1.841587819927827021e-03,-1.016867860588417227e-03
2.720272375983572369e-02,-3.351022022026588394e-03,2.254851188842399781e-02
-1.060939025264867747e-01,6.979477932429080378e-02,-2.564859098081667677e-02
-6.090297507709084568e-03,-5.855482616903111281e-02,-1.382997906604146315e-02
-6.369591042538701696e-03,1.856723780551047115e-02,-1.261834270163204180e-02
2.375068379052024808e-02,-2.740719269615756251e-02,1.204681242774302032e-02
-2.676076301752703876e-02,-6.301826338508093039e-02,3.030173498015747979e-02
-3.838430590588283887e-03,-1.604126677159850925e-02,-2.374844552704539341e-03
-4.559587044455102461e-02,2.140322961361552576e-02,-9.161262352440233125e-03
9.993805734807945096e-03,-2.339537329054013418e-02,6.732644686322689087e-02
-9.247419837142840937e-02,-2.039268651600444418e-02,-4.395067117594211176e-03
7.812952349816441183e-03,8.637074401124683609e-03,1.223940341311516126e-02
7.705548540299539395e-02,-1.103945008650429604e-02,1.027297223735400798e-02
5.369699953456646968e-02,2.475433128983745706e-02,-5.992740124035601107e-02
1.935574934438152872e-02,2.922081556983057923e-02,3.481335922052038179e-02
-4.197801486685927980e-02,2.947223207346928373e-02,4.725296278347437817e-02
-2.670968328817571388e-02,-4.860502399533631057e-02,-1.320566543195945269e-02
-1.823433256709073875e-03,-3.892176856482630620e-02,-8.214258702848646621e-02
5.473937163587416777e-02,-6.160656793718220781e-02,-2.730744236777771575e-02
3.218667912251641644e-02,5.926452691576101356e-02,-1.066889774090813425e-01
-2.662905191781460637e-02,-8.276654599642087329e-03,-2.588064482552420581e-02
1.214969723489427687e-02,4.046247260982630684e-02,5.233969761127903880e-02
-3.158986650600469070e-02,-4.559095044417642989e-02,2.760665270949280020e-02
-3.940819288230120593e-02,-3.095434837265124972e-02,1.223511489454595820e-02
-2.233721577846512277e-02,9.295855131040559050e-02,2.254101333260670123e-02
3.530838703330270445e-02,3.281013622931608364e-02,-4.485507594486014965e-02
-3.128007704892640101e-02,-6.677393730263561644e-02,6.001100291409678517e-02
6.089609464296576180e-02,7.473092648780456197e-03,-8.973564521515027537e-02
-8.540516540074897731e-03,-1.354180427258843376e-02,2.163688693828021495e-02
-5.446957596552765707e-02,-4.401919732647903622e-04,-5.591752737637420076e-03
-2.352135485369130988e-02,-1.075074386857610143e-01,1.092408904519529163e-02
-2.331808937063735432e-02,3.002633964973210751e-02,-3.861138317980292861e-02
-1.013510723409296599e-01,6.734588632448758327e-02,-5.342019983308284037e-02
-7.014830705313213066e-02,2.373394492547734394e-02,-7.268749917381220338e-02
-4.986556966481487524e-02,-4.226291379983201230e-02,-9.131556515264089083e-03
3.077341979847500464e-02,-2.838022112386713244e-02,5.417949906387488530e-03
1.607301404111328297e-02,7.804242848528705756e-02,5.222506678741117847e-02
-1.666096196278171737e-02,3.871505229159023093e-02,7.464149600522146334e-04
6.467266139493732524e-02,2.106802513171111141e-02,4.335478386114913901e-02
-8.687129777388698237e-02,4.002763794893079985e-02,-4.706793256892919525e-02
4.770161803455508914e-02,2.560560309301218931e-02,-5.322381988994756563e-02
6.629398472151580568e-02,-1.906720934850425833e-02,-8.311975386958360412e-03
-4.914415030623558306e-02,-5.742211291795761702e-03,-3.919393039720309169e-02
-1.041714793627116810e-02,-7.656088950457453322e-03,-3.628922198074930466e-02
-2.379305103385209036e-02,-3.608017823538587493e-02,6.203166891227767515e-02
4.178738682496217771e-02,-2.062642376049323920e-02,9.302970869564559930e-02
-1.292327882798827848e-02,5.715804630482995002e-02,1.028183386606608754e-02
5.557554381607710675e-02,2.188119484188964792e-02,4.896114625255638259e-02
-4.566161605003931506e-02,-2.416607834534589307e-03,3.558483914578291444e-03
-1.124614969255728486e-01,1.875027816074858675e-02,1.667999297609585804e-02
1.697005641180572913e-02,-5.270604035859675907e-02,-4.331372401341264042e-03
-1.031470081985435584e-02,-3.023254580354421163e-03,3.051839171321852479e-02
-5.288150089653718619e-03,2.957752400076600272e-02,-6.945395892096541644e-03
-1.060938268639014109e-01,-6.091497384955339711e-02,4.513717155068321801e-02
1.704246780823829785e-02,4.467262846915067212e-03,-5.012800380871808292e-02
-3.696585405571528593e-02,5.479279648288794269e-02,5.480082785475091922e-02
-8.132790819386416514e-02,-6.607380525122993897e-02,3.991696957070314106e-02
-6.431951338552306663e-02,7.253643562240340292e-02,3.689432535237419097e-02
8.135451221337302793e-03,4.887152109006048795e-02,1.305711642736175591e-02
-2.917537956632660495e-02,-2.362078605393959363e-02,2.679145863692498561e-02
9.917771540193152935e-03,-5.686601582094275020e-03,8.844395680843503138e-02
-1.485793406764541850e-02,-1.248240903742276441e-02,6.458029726006630198e-05
2.164911798634632303e-02,5.704860707880220205e-02,-4.934158886966001634e-02
3.869958714048452042e-02,7.643503976897018937e-02,-8.142401421479072629e-03
-6.285656502213586572e-02,-6.296515313551159787e-02,2.114259761857481892e-02
-5.943434892874900795e-04,2.791015074901611812e-02,-2.974658381119377887e-02
3.042225557598482108e-02,-3.212651412242046450e-03,2.422522380646451728e-02
-1.552097133320065950e-02,7.451799773985348652e-02,-2.609698578526131393e-02
8.934772241867974807e-02,3.828782798896628297e-03,2.729878372567700467e-02
-1.379232792491052323e-02,7.383775551712366825e-02,-4.376769846644036968e-03
-6.940777347971178318e-03,-6.113786224242608036e-02,8.803915976616427663e-02
-4.585552224635366242e-02,3.948743301415749002e-02,-2.144185405219782570e-02
-2.299004778902870999e-02,-2.660784877590832709e-02,-5.965494963137564499e-02
6.557237236928710467e-02,5.379866353748311014e-02,5.607744141627807322e-02
1.675298641823008000e-02,2.917234371901451795e-02,-1.941838322670744882e-02
6.363372714162367216e-02,-2.116534999258393515e-02,-3.914220105518776555e-02
4.517782670005457066e-03,5.985257407879403940e-02,-4.950292388813021076e-03
-4.258722892132170423e-02,4.620885090292597974e-03,-8.732989549809294649e-02
-1.155793972509515898e-02,-3.328778226099181337e-02,-7.515376829981313539e-03
1.050213431489606906e-02,-1.818717144584990411e-02,5.116315915769160949e-02
4.122888053525055468e-02,4.442327294435842282e-03,-6.598588729242903239e-02
-4.691325731284329975e-02,1.591690184645165596e-02,-2.815621580562062756e-02
2.091585683078770255e-02,-2.731742779799258697e-02,8.252867642696895545e-02
-1.773799282619559908e-02,1.791496755512659873e-03,-1.349020124579181773e-02
4.788764692426695883e-03,-5.736608689132966649e-02,3.210558697680848672e-02
2.784339230187649061e-02,-5.260250162460672341e-02,2.465004530053569592e-02
7.426012540398905376e-03,5.741679670412240533e-02,-4.747232331546475531e-02
4.669186784485351849e-02,-1.933715327881125809e-02,-3.512929841506384071e-02
6.066201837427462329e-02,9.785894105334130150e-03,7.958375862816415708e-03
-1.995573649618698556e-02,3.544827423442264286e-02,2.576276539917461694e-02
3.039504846795837087e-02,2.456300953063664250e-03,1.861840769089199648e-06
2.052592610355921405e-03,-3.247767076758618920e-02,6.980147879271556520e-03
2.328280451680859661e-02,3.782230976392179922e-02,-5.777154336238502635e-02
2.837002053927506831e-02,-1.840959825176325879e-02,-5.134419278231725295e-03
1.027092872997099893e-01,-1.280022457860384606e-02,2.009727987568451363e-02
2.222578967723250285e-03,2.000647372666236254e-02,-8.923694369481770250e-02
4.546435941063578512e-02,9.618584856559005483e-03,-5.452688950207645446e-04
-6.251490953520519311e-02,3.632128580171975485e-02,-1.024731607567191949e-02
-2.089846232010902569e-02,7.536620021936602605e-05,3.833779905310518875e-04
-9.588747874120873149e-02,2.106892691705035750e-02,-4.410381650314885299e-02
4.154187253542149932e-02,-2.173357717717029625e-02,-3.952061301104379393e-02
-3.660533172046587930e-02,-2.478386371392253713e-03,3.482227593311759684e-02
-5.269456929996459670e-04,-4.166802816839669521e-03,-4.848441882503668442e-03
-2.080085730911430085e-03,3.165541907725770432e-02,-3.281045977242269540e-02
1.873566930673272943e-02,2.984917742831202578e-02,7.473603470311170754e-03
-3.890438612124311277e-03,2.340629729280950880e-02,-3.202062194967791181e-02
9.336514803891111935e-02,5.356096899316719478e-03,6.174670170062612068e-02
-1.793874784202971646e-03,2.533147528725333483e-02,-1.173745682538002433e-01
-8.801581757923901753e-03,8.390240311695728453e-03,2.966368621036350947e-02
6.174630319232000952e-02,2.879466286313696333e-02,-8.472257870912856814e-02
3.886828366148902675e-02,-3.562490548871093121e-02,-2.020344048283258601e-02
-1.072508331132267928e-01,-4.459098738115784694e-02,4.497493522361886709e-02
7.444789094083184219e-03,-5.685274665306948305e-02,-1.862695747049230091e-02
-1.771843603394376507e-02,5.224902479266094885e-02,-8.251656811982728545e-02
4.244207731688715533e-03,-7.975334538405183527e-02,-3.206091341096768688e-02
2.212430233780571937e-02,-4.173505141243202127e-03,-5.413442299047330208e-02
-3.714854479506245893e-02,-1.544407500070377887e-02,-2.239603591665602356e-02
1.966733511022396297e-02,-2.773584203535760587e-02,5.646669504853209232e-02
-7.898992281456876374e-02,-4.678418153133773877e-02,2.885781124548225315e-02
-1.326134683448356930e-02,5.492145495961738011e-02,1.200730135529332610e-01
-6.546361398903530193e-02,-2.541884976682314782e-03,-5.179064188902730848e-02
-1.504142360483184081e-02,-6.254195557672566352e-02,-2.103068973076479067e-02
2.524140160847251901e-02,-3.671610404811544159e-02,-4.438586005047145261e-02
-1.116711800390737114e-02,1.055671950024068308e-03,4.202634096860553836e-02
-3.282275280724958333e-02,1.307202050035581251e-02,5.301024241801608611e-02
5.736278779414324784e-03,-1.027186858164381295e-01,7.912681473494666620e-03
4.039347943220882899e-03,3.027671664193329684e-02,-4.285483259182485544e-02
1.081670888811442355e-02,-2.948942770368328734e-02,-4.619255705961471115e-02
1.576513848606704918e-02,3.136320516727807844e-02,1.644078896627866994e-03
-8.089853832018942606e-03,1.493242157167084042e-02,3.919436846733946600e-02
6.959564498469880179e-05,-8.497231360340615214e-02,1.543772696603668004e-02
4.647889192657189694e-02,1.381916254053678489e-02,-4.732097677803194513e-02
7.542724946515086404e-02,7.614741272904890224e-02,-2.017945380508346861e-02
8.305193316001178994e-02,1.879487638439686359e-02,3.745240619961231338e-02
3.712171670289859254e-02,1.265621008707058619e-02,-3.406618355137001897e-02
-3.356123146133180345e-04,1.858557643716560875e-02,-6.507052598511069152e-02
-4.550605462096157100e-02,-1.662216274929877863e-02,-3.279446183252381682e-03
8.455285972217842227e-02,5.752077431327439448e-03,1.925672919013900544e-02
5.022356768611849036e-03,-6.759134026390270500e-02,-1.145034797246781422e-02
1.803707569635271471e-02,6.258022746758495555e-03,-5.362472068134596127e-03
-3.887129985333856626e-03,1.332841479938911243e-02,3.183485469580633886e-02
4.495900933005662903e-02,-5.653064000357777702e-02,-1.256665998486640110e-02
1.024386998623698190e-02,-1.713008520646664909e-02,8.921324701318517070e-02
-3.165859529308359677e-02,-1.890648487270457645e-02,4.994300398279123698e-02
2.106377796007236416e-02,-7.503718931028699468e-02,-6.462057377159287352e-02
4.695796262600146487e-02,-1.180852278580688669e-02,-7.214199748874909612e-02
-7.017274631301306798e-02,-7.064386022628292572e-02,-5.074804387239736925e-02
-3.447696995119970461e-03,3.944961220571598787e-02,2.916988744781464499e-03
4.371080485943611843e-02,4.870158075188777552e-02,2.317758720273939768e-02
-4.530589005477573400e-02,2.295728591745138311e-02,1.821330125027950317e-02
7.668853186435684033e-02,1.254943464246898203e-03,4.814563681165123787e-02
-1.132759561534238055e-02,4.511867385687383381e-02,-4.238247373786851319e-02
-4.592435857043072195e-02,7.632608321432744064e-03,5.745767136722286506e-02
4.719761697736440248e-02,-5.473674025656483783e-02,-3.846004820535073310e-02
3.811228134584170035e-02,2.551991595882597587e-03,6.088060281681472591e-02
-1.873449997555605429e-02,-1.202055673333093239e-02,5.230378829138955521e-02
3.074889191982652786e-02,-3.532091304185724229e-02,5.039535388644535152e-02
3.700540652729452512e-02,-1.192517195790242582e-02,8.161597918861308865e-02
-1.286851376480963038e-02,-7.295029670828448096e-03,-7.688998590346877125e-03
