accel_x (m/s^2),accel_y (m/s^2),accel_z (m/s^2)
-4.041462545464317817e-03,3.412860949650406688e-03,-9.791389254465748593e+00
1.102301774825489161e-02,-6.285165255629584667e-04,-9.795065366888955793e+00
5.836316904507766947e-05,-4.946866591487588359e-04,-9.793196934089236194e+00
-1.051660618249742815e-02,-3.453931728160780732e-03,-9.789826902854908752e+00
5.112934562144518484e-05,-6.840058919336841452e-03,-9.798027630573686864e+00
-1.772336027912135067e-03,6.996810365363862871e-04,-9.793962433104642429e+00
1.077835419793361088e-02,-1.583881932081123572e-02,-9.794839206317838887e+00
1.188761667192014511e-03,-1.393930530878466226e-03,-9.783346942864030282e+00
1.654227471190965670e-03,-4.570346218416461437e-03,-9.789883747264569891e+00
-6.224163014941309045e-03,-6.738936239834281833e-03,-9.783351759362027167e+00
7.117694899228656745e-03,-4.076804767803762254e-03,-9.787428294808433904e+00
1.161434141867349196e-02,-1.066902689887163670e-02,-9.791332738010268599e+00
-6.417410222762721158e-04,-1.376759187677397550e-02,-9.790306003277011726e+00
-6.009488506773275583e-03,5.465343368571976869e-03,-9.797009218067415759e+00
1.500211867089581552e-03,-2.205112422269418174e-03,-9.806249089729194068e+00
7.156914151752858007e-03,-3.532265912459441482e-03,-9.798796362840462848e+00
1.939372368008117657e-03,2.146355714223156276e-03,-9.784265437713720814e+00
2.104161207669211914e-03,-2.261237669894194599e-02,-9.782998581960168138e+00
1.825379990552237477e-03,9.104215100816588288e-03,-9.789086338093644812e+00
5.385878592630496085e-03,-3.706936370412837640e-03,-9.788649027983451489e+00
-3.815768893407876956e-03,1.409912869083418006e-03,-9.789384413697870713e+00
-2.822139786962806537e-03,4.771650480575925085e-04,-9.792688572290369819e+00
-5.647948622805819795e-03,1.040656935387853158e-02,-9.798312101843620781e+00
7.724737209221782010e-03,4.890548372617005597e-03,-9.791201930299752831e+00
3.874807795355119842e-04,-9.175055810192466604e-03,-9.793029384416263028e+00
7.148608934117168037e-03,-7.145066342457984977e-03,-9.780490037400385361e+00
4.887435883245618874e-03,3.695310091342983785e-03,-9.787406139319401177e+00
5.362168752332504076e-03,-1.065372003607101617e-02,-9.796065758059523176e+00
-8.386331940044126215e-03,-7.585851840043488122e-03,-9.790019909485984329e+00
-7.272872808873428845e-03,-1.271201172252673511e-03,-9.792750887380002212e+00
2.401903091546984947e-02,4.499131231940551364e-04,-9.792141353986929531e+00
-6.059817439118811086e-03,4.006298045641728395e-03,-9.795468244844791172e+00
2.813886797825862159e-04,-3.612637936741082412e-03,-9.792346931529976928e+00
-1.899323894590217859e-02,-6.874973394815925981e-03,-9.795953602851694697e+00
-1.808104023155323843e-03,-5.334847644680021372e-03,-9.796497030555981311e+00
-1.719687410769188971e-03,5.389807377298586402e-03,-9.790339163199611505e+00
-2.529617043921244309e-03,-1.758515553220015145e-03,-9.792850398968580450e+00
5.839697828029482250e-03,-1.013970150217587476e-02,-9.794637190801157800e+00
-1.683880079154236389e-02,-7.131177774774805772e-03,-9.804480216081364219e+00
-5.215467138330499505e-03,3.044239892538582772e-03,-9.792101031088748186e+00
1.231383256813437313e-02,9.007167648114197678e-03,-9.792622819082152930e+00
1.253004803060662163e-02,5.303482603000270364e-03,-9.801526132360194765e+00
-8.740583646367634449e-03,-5.924063770747595332e-03,-9.782711623636295428e+00
-2.675638713718303356e-03,-2.754171836451627282e-03,-9.804961082677461803e+00
1.794636163525064210e-03,-1.347035996093894072e-02,-9.788988055545710054e+00
-4.450143173701094461e-03,5.229473511003852621e-04,-9.791631647541121808e+00
2.865986320772191849e-03,1.130629217371870339e-02,-9.799345324601338447e+00
4.176458376664854769e-03,-2.707397719381603174e-03,-9.792381567941728093e+00
-9.970076400539927206e-03,-6.093995033480988435e-03,-9.788038959177463028e+00
4.135805616836950652e-03,-5.789129208400005215e-03,-9.788180394902390447e+00
4.502153723814500581e-03,-5.421068834924745901e-03,-9.788832525213168267e+00
-4.454702033014904449e-04,-1.941811701492123605e-03,-9.791711108685094089e+00
-8.820190793794967579e-03,-1.333150945263664525e-02,-9.801750018285527943e+00
-6.978848615465227563e-03,-9.881600840526989088e-03,-9.787970429857432819e+00
-1.442633906414906913e-03,-1.774039704227736020e-02,-9.791430989967773613e+00
7.692752876203095939e-03,6.473596148684885448e-03,-9.798584969519170684e+00
-8.004035426812246626e-03,-4.877607723084057857e-03,-9.791546209420399549e+00
7.320042324787186423e-03,9.404521680841308566e-04,-9.791047300508624929e+00
-5.093885055156125580e-03,2.431780166620731674e-03,-9.796250662473484638e+00
-8.393142554649098488e-03,-2.330007558197835869e-03,-9.798915660454131427e+00
-4.196986609184909754e-03,2.246782578169286004e-03,-9.795301960387412521e+00
1.936253238254574899e-03,-9.759712910909978337e-04,-9.803501379107467884e+00
-1.013068425415517265e-04,-1.489024574943688395e-02,-9.801574492285837437e+00
3.550198337833218934e-03,-3.108781830245651440e-03,-9.791781660682371324e+00
-1.621821648764456766e-02,1.007029734492496074e-02,-9.783813633865035442e+00
4.906912472049658296e-03,1.850059645064666648e-03,-9.789646998052933924e+00
-6.408690144368423339e-03,-4.186153419912623519e-03,-9.793906655902468117e+00
-3.320246349338852772e-03,-1.855868333348946637e-03,-9.804478255574377243e+00
-6.052829457667528029e-03,-4.751889636844960040e-03,-9.787826867649933149e+00
-1.699916630610759675e-03,-3.939998687271107324e-03,-9.788931802556676942e+00
-2.785047751456027308e-03,-1.205253073582999643e-02,-9.784010771505494475e+00
2.327211247851774297e-03,-1.392026569948326756e-02,-9.804295463830520418e+00
6.403370738352412439e-03,-6.114598309326926655e-03,-9.800800799224138160e+00
1.016647607772746230e-02,-4.359262899253130326e-05,-9.796591481833480941e+00
-5.054780034317595677e-03,-4.863312316083002497e-05,-9.790678220983741298e+00
3.132897291309102213e-03,-5.065714304536590197e-03,-9.795469253039446045e+00
9.791729983673821969e-04,7.417826981323365210e-04,-9.784000974027904363e+00
1.640014457959713609e-02,1.387119440286499342e-03,-9.800474768145901905e+00
-2.335853499726878949e-03,-2.358793790020236817e-03,-9.794004768402118088e+00
1.106036469990190167e-02,-8.232492397870116302e-03,-9.781333500801579817e+00
1.307078310388325865e-03,1.179910913020872608e-02,-9.792481554791724108e+00
-8.271997283141372878e-03,-1.057588378408751747e-03,-9.791488998870539362e+00
7.203171887591931777e-03,-4.974689307421609891e-03,-9.786109442905894795e+00
-1.379016498830947478e-02,6.335886512137324511e-03,-9.798266210408904442e+00
3.595576485961375374e-03,-4.389928853794574509e-03,-9.776660693622948983e+00
2.812206672698604974e-03,7.197322524333416016e-03,-9.792216500869521667e+00
-6.035590082060476001e-03,-1.183867069707921112e-02,-9.789075773008116599e+00
6.384752482066585050e-03,-9.205042930916525592e-04,-9.787057739438715487e+00
-5.102887345839099940e-03,-9.153639899586311565e-03,-9.788393716163962921e+00
4.981570811799979070e-03,-1.932536925762973765e-03,-9.795014758328244753e+00
-1.950524952924268711e-03,9.422493675910477429e-03,-9.796522928135152242e+00
-1.411536125030252121e-03,-1.520691709868376464e-02,-9.794399732337184972e+00
-2.910338624965395568e-03,-1.066189315628128390e-03,-9.799360591605923432e+00
-3.096481314924803135e-03,1.742653396750486238e-03,-9.787409997639816339e+00
-7.453980801790565172e-04,-1.352242143790554837e-02,-9.797644970399874254e+00
5.683861221782050312e-03,4.312958090387961421e-03,-9.786856686912400960e+00
1.364241568857010303e-03,1.148566261612579860e-02,-9.797911834423468136e+00
6.097885271616516542e-03,-9.781537615084726078e-03,-9.781105842456399913e+00
-7.631892019708572811e-03,-3.406855932017050642e-04,-9.796964222275725831e+00
5.054439674982768660e-04,-7.487028807910395441e-03,-9.798850226212875825e+00
1.929247499659074135e-03,-8.183884294937764092e-03,-9.790981004546877031e+00
-2.957552482568592735e-03,-1.277103497748021711e-02,-9.795255650261191604e+00
-6.330401281733521318e-03,4.379652267953908565e-04,-9.785649626380722665e+00
-3.252593090226170523e-03,-1.235765847304117924e-03,-9.801634217862069676e+00
-3.341758461565406783e-03,-1.350456232979993856e-02,-9.783532002969744568e+00
-1.364018398204825885e-02,2.746903104809748312e-03,-9.802663967422979852e+00
-1.205947739891737730e-02,-1.294766739895736665e-02,-9.771829980117153980e+00
9.387052970408094055e-03,-9.875751265386955788e-03,-9.794290858327039828e+00
-7.671102924363279452e-03,5.874353817276742502e-03,-9.797839769435714885e+00
2.657328577352401598e-03,-9.016252659707523409e-04,-9.790246449984717714e+00
-6.317375664727182226e-03,1.684803057746274901e-03,-9.801071167091375713e+00
-1.246271868433822087e-02,-5.183092165379162009e-03,-9.796564320131018633e+00
8.013315040800465458e-03,2.342561349875590688e-04,-9.798945950999931043e+00
7.931025881895804180e-03,-5.228379884947878878e-03,-9.803668312395114270e+00
-6.391328326176884921e-03,6.148100791652588194e-03,-9.791793295600641045e+00
1.751410516389595700e-03,1.344641808790826782e-03,-9.788219972127517821e+00
-6.837618347249631127e-03,7.887657752299163678e-04,-9.781691185343508010e+00
-5.218039945824476953e-04,1.323347398076270970e-02,-9.790245069586166693e+00
1.125502715102990638e-02,-1.080116377072578779e-03,-9.792221460963464352e+00
-6.165449458560594807e-03,-7.683010133501574912e-03,-9.791292356037283540e+00
-1.244527605842127987e-02,-1.038392621957474416e-03,-9.798608654213490254e+00
-8.316778154173651641e-03,-2.652713849200398488e-03,-9.791852705318106587e+00
-5.197975666120948843e-03,1.525933142759118046e-03,-9.787107386509518392e+00
-7.116105092383285223e-03,-4.306880761261115687e-03,-9.795863871646776744e+00
5.421575729825245903e-03,-1.808333094504842396e-03,-9.783231853046713056e+00
8.301748121818327414e-03,-3.988883770324714532e-04,-9.785607765412079218e+00
3.552107301689367592e-03,-1.141935968000245931e-02,-9.790467546711756341e+00
9.643581201086133883e-03,3.054013160772188484e-03,-9.793659830979649428e+00
-4.547567066764238858e-03,-1.649619033611314858e-05,-9.794144481513953338e+00
-3.195372831808068314e-03,-7.075557240486245181e-03,-9.793382099534580831e+00
4.839016996628173889e-03,-1.157979975013556173e-03,-9.788805841755745973e+00
3.693962682148358920e-03,-1.419457737108121079e-02,-9.805971787232648396e+00
7.215449740005560816e-03,9.884723243846800164e-03,-9.788741864342544119e+00
5.942565162656896979e-03,1.258925065342472250e-03,-9.795532310815936228e+00
-9.377813100779210098e-03,-8.096221849587621408e-03,-9.795302595976842497e+00
3.750220230230605378e-04,-5.226539359657849174e-03,-9.781539152674129767e+00
-1.601272591847880886e-02,-1.253340659009121762e-02,-9.789648645434786189e+00
-2.405037980055504260e-03,-4.931401050755622115e-03,-9.794416341362101264e+00
-1.981213025401955263e-02,2.689800440203454421e-03,-9.785861053003230836e+00
-5.455339285098233237e-03,7.397333392965201471e-04,-9.798818906037979559e+00
5.422266739018000679e-03,-6.784945160889216788e-04,-9.786748226498076519e+00
-2.399022085612778372e-03,1.356491377907932325e-02,-9.802707531767909543e+00
-1.469251907482147651e-02,-7.583999309061541239e-03,-9.787110443795747017e+00
-6.851398061861908688e-03,7.484468388078316207e-03,-9.787091375480422073e+00
1.660486045209210587e-02,2.128866181001857691e-03,-9.792257004084030214e+00
-6.334767836288424624e-03,-9.607636224812875908e-03,-9.790525279934843894e+00
-7.534049293077748830e-04,-3.707539273242351635e-03,-9.790125091198243368e+00
6.448375991846116637e-03,-3.336847192520654357e-03,-9.795049774375348406e+00
6.800720438938569201e-03,1.655286024593545860e-02,-9.795510618151839211e+00
3.022433026607535336e-03,4.678490003940818584e-03,-9.807275379268636684e+00
-7.787567964273366464e-03,-4.045233237991998580e-04,-9.791315098436642828e+00
-2.337646033668811744e-03,7.609749221793589424e-03,-9.792139025168115296e+00
-2.980827485417440314e-03,1.176217426955314047e-02,-9.797235026811254244e+00
1.352288522213628170e-02,-1.149675303112680270e-02,-9.794917477179136966e+00
6.958539847430745932e-03,8.909379882722299592e-04,-9.794081789588725329e+00
-1.470012145538653406e-02,1.979676445077238611e-03,-9.792004652091311101e+00
-2.993927809627061750e-04,-1.619445013966615146e-03,-9.788683337183558208e+00
-1.354742426035781058e-02,1.504079584178074150e-03,-9.789291780838539125e+00
9.493335692059901021e-03,-7.791569584919345089e-04,-9.786980720375188625e+00
9.250290293940789665e-03,-9.414561680315515838e-03,-9.790300234006707569e+00
-9.737655657000467493e-03,-1.677110913793594497e-04,-9.798530745737455305e+00
1.217939650648549926e-03,3.815629827229439965e-03,-9.812505147221642687e+00
8.567565990807499490e-03,-7.428601459941061753e-03,-9.779108617009432791e+00
-8.511577569319550855e-05,-1.213952973786945264e-02,-9.802071506203450468e+00
-9.922710373607649542e-03,-1.046091369573457419e-03,-9.787334917568472292e+00
1.470292447148936754e-02,-8.940408076321781743e-04,-9.787938183835921180e+00
3.309659982111489308e-03,3.321049943314836363e-04,-9.791856698113424073e+00
4.082952342160623554e-03,-9.321605931608464152e-03,-9.786555235590107316e+00
-7.922903180716636988e-04,-5.026639126688083048e-03,-9.785759473062849878e+00
-4.256716076064453146e-03,-5.031092356095508145e-03,-9.804863313707080863e+00
2.060331350687155411e-03,-3.325955124403592259e-04,-9.792761459869257834e+00
5.589493715486906766e-03,-1.469638093633157325e-03,-9.778728083474254262e+00
-3.215901768267191360e-03,9.535313347684596513e-03,-9.782769199814485006e+00
3.129951699090513517e-03,-8.702700944799617727e-03,-9.799143398139710470e+00
1.063625115742025326e-02,7.167823210395815603e-03,-9.793935077079547469e+00
-4.811067337010869333e-03,1.192659396515426389e-03,-9.801001455409435792e+00
1.280869348493215206e-03,-1.295075146959605815e-02,-9.796206891297298824e+00
4.375448898072187461e-03,3.406644646058577634e-03,-9.796891908960303041e+00
-7.899045150313272617e-03,-7.722425001856426247e-03,-9.787650870131219705e+00
7.862811164614855533e-03,-4.201236345158083224e-03,-9.797610780036455580e+00
-1.044675807773190685e-03,-7.058966684462914150e-03,-9.793841333624673240e+00
7.661344010061202359e-03,-1.565831302763377036e-03,-9.791928787442946813e+00
4.495568950257031182e-03,5.834046004722026439e-03,-9.789051239930630643e+00
-7.503262766681185894e-04,1.251535458438232922e-03,-9.811439076182072228e+00
3.237665417759535980e-03,-1.481185758993142088e-03,-9.793841066080103630e+00
-2.886652737573768088e-03,3.703232191560637022e-03,-9.785678837261382768e+00
7.859238133254869973e-03,-6.814499507135050003e-03,-9.786632133865197147e+00
6.272701501415074926e-04,-1.696137887004594766e-02,-9.780646030812114589e+00
-1.145864028616064290e-02,-5.504723531299761559e-03,-9.785665943941836531e+00
3.910145571157931134e-03,2.007878072570427365e-03,-9.808520911260149688e+00
7.017889667092282700e-03,-4.683322275894023085e-04,-9.799663815276979051e+00
-5.057117432838174670e-04,-8.552351031983299393e-03,-9.788939972984554316e+00
1.086958520025520930e-02,-6.310624805277553762e-03,-9.789147937637546093e+00
2.133782529146404944e-03,-1.669219633422858867e-03,-9.796801921032873395e+00
4.024881931634126733e-03,-1.804874720649217315e-03,-9.784253210681258750e+00
-1.687455054598649851e-03,4.388660173516001003e-03,-9.804429758594764621e+00
6.605829302849705077e-03,2.035980619098050337e-03,-9.787516695825658530e+00
5.495574662647304681e-03,-1.816307139326810366e-03,-9.801179875837600974e+00
1.132818815752242338e-02,7.795385726344809113e-03,-9.809044098592798022e+00
-4.390739852306653479e-03,-3.652368528111727113e-03,-9.797359434399069755e+00
-3.340106093619006882e-03,1.446747168605371989e-02,-9.783137703824678511e+00
-9.999603743994429569e-03,-2.371196383609327791e-03,-9.802647049273383928e+00
1.075176068804092368e-02,2.643331808518953677e-03,-9.791012172603558383e+00
-1.024727435098525714e-02,-7.068975547032695962e-03,-9.800545341392934873e+00
1.076542977172913109e-03,-2.502010701234254515e-03,-9.796294886015049386e+00
-5.136855415457316186e-03,-9.371949986970115956e-03,-9.790198251102223637e+00
-5.014234299194409925e-03,7.955526222661404596e-04,-9.797293774410864131e+00
-5.008675752242430215e-04,1.887795165023067965e-03,-9.786599405741169377e+00
-7.762601587411551742e-03,-1.181528474069113745e-02,-9.788890776379892245e+00
-2.862732536378602335e-03,3.501647291373867835e-03,-9.778349282735751657e+00
-8.659283006725719198e-03,5.649767578199429291e-03,-9.808548528550614876e+00
1.849445135513571627e-03,-1.308108618305275353e-03,-9.799157594121634673e+00
9.246979356491455068e-03,-8.846486858341082865e-05,-9.800347372660906942e+00
-1.220180858656481036e-02,2.520319486912283961e-03,-9.798971497954847010e+00
1.195070378477894497e-02,5.660740890382310458e-03,-9.797010436447994408e+00
1.246113391207887520e-02,2.850154034175248711e-04,-9.797630829092753402e+00
2.465463853185971294e-03,-1.667480832117345562e-03,-9.791165991179310524e+00
4.446762768320827036e-03,1.636873188079391445e-02,-9.783983222522103063e+00
-8.028831116154443485e-05,-9.897380863939674034e-03,-9.790165040545138808e+00
-2.545417893551785854e-03,-1.263344470876210865e-03,-9.794508835298005422e+00
3.848300676891716100e-03,1.950095362554605475e-03,-9.782885253321730090e+00
-9.001329456160606438e-03,-6.289641022845741253e-04,-9.795744985408740391e+00
-5.290409594299144008e-03,5.203889721771641323e-03,-9.799528690973829725e+00
-1.100363780523139559e-02,-4.259559335511607647e-03,-9.800978900034207797e+00
-4.223781802073757556e-05,6.626172870874936453e-04,-9.788418424117187655e+00
-5.475340961958802093e-03,-1.343947381986223752e-03,-9.809595472603795940e+00
7.559687390220643823e-03,-1.047402960805404390e-02,-9.797344926684271371e+00
-2.604617782009894817e-03,1.415243094764232542e-03,-9.793521540759634547e+00
1.918953464860624538e-03,1.128037642804475800e-03,-9.792736853406477593e+00
-1.439559486911959167e-02,8.875049212168702184e-03,-9.799931826625774889e+00
-1.006779225812450516e-02,1.190626988217529519e-02,-9.789318074500044986e+00
-4.725134422776406523e-03,2.470101665463085398e-03,-9.781677579534271416e+00
-2.970089082801072398e-03,1.417038956340521986e-03,-9.788018826340211476e+00
-3.958669551999366952e-03,-2.104979682455048948e-03,-9.802422538132681495e+00
-4.730887236060470785e-04,-2.457292872192235779e-03,-9.802752589762294022e+00
-4.927595103731132950e-03,2.749279435584717473e-03,-9.794237131841017074e+00
8.022871483033326386e-06,-1.442574659361323640e-03,-9.787129910100217600e+00
-4.935928370914371283e-04,1.357603840014627496e-04,-9.797890098437727957e+00
4.039007586059099528e-03,8.425348180705904272e-03,-9.794326789992982896e+00
-1.277582871273923171e-02,8.768979326343444985e-03,-9.790216749210735259e+00
4.071470190268641764e-03,1.071504566603023560e-02,-9.791936015552035855e+00
-5.305050758149220877e-03,-2.058445295899250307e-03,-9.802148321978398471e+00
-6.152042007577640699e-03,-1.882606565289802591e-03,-9.789221264865211936e+00
-5.998600147966366355e-03,-3.690687816764941925e-03,-9.792376330147389396e+00
-5.820203564897143307e-03,-1.057408989471486996e-02,-9.792775025045223458e+00
-5.041796623418503100e-04,6.667609538211678039e-03,-9.786586588000350417e+00
-4.208661348209099401e-03,8.305873169333463559e-04,-9.800636863723946490e+00
-3.112999776383366750e-04,1.680130186761453689e-03,-9.789614791031572949e+00
-6.571200228872929421e-04,1.218590264188625484e-03,-9.776513711103820725e+00
-3.007984200363815388e-03,-2.168897849666219253e-04,-9.803115762617141016e+00
2.788058180706976669e-03,-2.145057154444342598e-02,-9.798151923510530992e+00
-7.690230632257277939e-03,3.353663371571420984e-03,-9.797121645156959602e+00
-2.674697699166019536e-03,1.783798595127230333e-03,-9.801897567126824029e+00
9.992792823624455437e-03,6.527100850648951541e-04,-9.801509864286657603e+00
1.339618710044524624e-02,-5.872735514647968794e-03,-9.796680149724165787e+00
-1.042611585027446164e-02,1.600273682060343247e-04,-9.788996778865339365e+00
-9.386708015111393591e-03,8.223871744917302107e-03,-9.807085298088248138e+00
4.871460079458971720e-03,1.060865180514741074e-02,-9.796655005913510905e+00
-2.037082866613505738e-02,-4.492280308876188052e-03,-9.791048195365890550e+00
-1.297561689890582362e-02,1.727155843318111707e-04,-9.808940862634836222e+00
3.237031259997608535e-03,-5.067286711410349089e-04,-9.781211072935068529e+00
8.484764630574070932e-03,-9.550296519295269765e-03,-9.784852024356759159e+00
-2.800434259039488293e-03,-9.724137800194774042e-03,-9.796547247678974557e+00
1.343959569494096451e-02,-4.358456961972457556e-03,-9.791079444592071468e+00
-1.310955104238357115e-02,-4.892817257012591591e-03,-9.789392929053214232e+00
1.814455660868970199e-03,-2.671325477591959471e-03,-9.803784562363688337e+00
1.307624396605196020e-02,-5.888329355895577204e-03,-9.796604207722539925e+00
-1.385508188175926369e-03,-5.990932241752460526e-04,-9.792828056663099190e+00
-9.551936146740204643e-04,-1.899645103937644451e-03,-9.795349147963246850e+00
-9.064008185696893760e-03,-2.534113108014989478e-03,-9.803771832647850459e+00
-1.573053807132715302e-03,-8.513420831386382323e-03,-9.787008642668387992e+00
7.877200231444156375e-03,6.081940552525639046e-03,-9.801428306377438560e+00
1.200163272006033247e-02,-6.909261336006703239e-03,-9.799148287986023220e+00
2.290040313945059750e-03,-8.987524569873107244e-03,-9.794322583839118579e+00
1.002538730524075647e-02,2.031559345618019936e-03,-9.798083347977151192e+00
-3.787133532026851213e-03,6.748557504389509840e-03,-9.786152411701468878e+00
-2.018327022476883083e-03,-1.946779226792164086e-03,-9.790730268707097395e+00
-5.673503840181513651e-03,9.128351870544181706e-03,-9.793533382178297941e+00
3.878913070506653793e-03,9.728784220461882994e-04,-9.803970967715793350e+00
1.615722477066229177e-04,9.499445964149078742e-03,-9.799923301169933154e+00
-8.887920948875185564e-03,-1.593184130812827851e-02,-9.794487799899281200e+00
1.801585573744365247e-03,3.212810887988724190e-03,-9.784298852555224357e+00
-2.047365699889917498e-03,-8.016051019191824945e-03,-9.805631516641431844e+00
-8.100338358046479947e-03,2.510631677975023492e-03,-9.784175110838935652e+00
5.103037520769868572e-03,7.266552928730798770e-03,-9.815750524727866022e+00
1.839779202833749516e-03,1.361173382342062768e-02,-9.799147836497144937e+00
8.631824982028146048e-04,-9.006234398458538848e-03,-9.777732559554635827e+00
-4.003843692814726581e-03,-1.159428498777654963e-02,-9.794918641422283301e+00
-2.541881604832201425e-03,1.835096681406207970e-03,-9.785746215022424366e+00
-1.282821240219191028e-02,-1.307049482432588250e-03,-9.795142898310087887e+00
-7.932233563624149428e-03,-1.116933859857506886e-02,-9.799253924457554277e+00
-1.555604195475007376e-02,5.999291204462553137e-03,-9.782487298854706026e+00
1.333292747664367207e-02,3.772731321837108701e-03,-9.797093203018963692e+00
1.893765316396851589e-03,7.593032682953069525e-03,-9.792476519642285382e+00
-7.280340693030800010e-03,-1.984574227093639266e-03,-9.794351964320449966e+00
-2.852167215519747084e-03,6.050629144610078329e-03,-9.785484224186408397e+00
-2.758022188763246843e-04,7.129697560144000572e-03,-9.790700931687286612e+00
-9.669310504721813360e-03,2.120775726566088634e-03,-9.786701100094029826e+00
-4.563688902117589603e-03,5.626532433667157801e-03,-9.786327177147491341e+00
-3.636805620649813235e-04,5.158887121758112294e-03,-9.799144730108045209e+00
4.415849171168233570e-03,-1.112638581850489833e-02,-9.805737728381920704e+00
3.209426164060862150e-03,3.413322712223221256e-03,-9.791135326849522258e+00
2.733339251142396370e-03,6.084833421932557031e-03,-9.806770428460035660e+00
-2.397009076571433948e-03,-1.319181055104986545e-02,-9.795459232238060920e+00
7.689502115440728560e-04,-8.764946428671925235e-03,-9.789261714206370257e+00
-8.567912580766230690e-03,-6.265126247988151917e-05,-9.792148822452967138e+00
-7.797789552632402145e-04,-5.181373311386373685e-03,-9.798909046093283948e+00
-3.467562867100698956e-03,6.111640445184918224e-03,-9.796967844671245373e+00
8.376618312618088272e-03,3.357893389519112960e-03,-9.790379455681785359e+00
4.360815682422472354e-03,-4.656512002919241909e-04,-9.794741059089355772e+00
8.159139290652773699e-03,-3.627987905209573150e-03,-9.792139870576086480e+00
-1.929781004012668007e-03,-6.879109149030300692e-03,-9.806188832591800519e+00
-1.000737352103921347e-02,2.031338218157481817e-03,-9.789693869139247440e+00
-2.097979210239000070e-03,-3.034621752970000953e-03,-9.799120928231255689e+00
-2.168273571410232736e-04,-3.082892033993876561e-03,-9.795952225735019780e+00
-5.298704630542504278e-04,1.418908270371451114e-03,-9.803674964221261945e+00
-9.391389151886397543e-03,5.512998450552388657e-03,-9.792249948550150407e+00
-1.755168493701212654e-04,-1.178551614827965527e-02,-9.792717014970559575e+00
-1.871664035361368878e-03,-3.080862634263820468e-03,-9.771904887948371865e+00
-1.348815749799677638e-02,5.899152038388860188e-03,-9.810988964426503145e+00
-3.493139485851957764e-03,-3.785692993935422905e-03,-9.799626001100381956e+00
-3.158024919493836701e-03,1.832150572720792720e-03,-9.798358475496952380e+00
-1.755549432567257706e-02,4.269068116932402991e-05,-9.783391082412020268e+00
-1.458046692984802349e-02,8.834610641433236072e-03,-9.794495503190740138e+00
1.473282897067208774e-02,-1.050093354163678799e-02,-9.794660343554145499e+00
-5.206067056395184516e-03,-2.837667186818970764e-03,-9.791779586649843381e+00
-2.245420527266001835e-03,3.552902497967171114e-03,-9.796222623257401452e+00
-3.106675990169355944e-04,-1.923195851805098834e-03,-9.793459552087780295e+00
-9.845190206590814092e-03,-9.263590977862777229e-03,-9.784049509176458770e+00
5.016310623415039596e-03,-1.142653409761607182e-02,-9.797856356482952833e+00
-8.290792374752639898e-04,1.358052755854459101e-02,-9.804499995052168515e+00
6.459597576682376413e-03,5.223711734380377496e-03,-9.784434605503657068e+00
9.641495895925976996e-04,-7.880533809273473217e-03,-9.791699469551916835e+00
1.919606799812780592e-03,5.533336940182637283e-03,-9.786620670599953442e+00
4.266103711721633816e-04,-4.491474354005190253e-03,-9.798683466004026954e+00
-1.283154034269405781e-03,1.872041359385146495e-03,-9.781458623394589935e+00
1.077659377042657204e-03,-1.309256397943879633e-03,-9.795529411475275339e+00
6.439696406686185558e-03,7.860747176339256959e-03,-9.794471115547894513e+00
5.328600887462688583e-03,3.988213051781955461e-03,-9.795820412751798045e+00
-7.168046140599207590e-03,-8.678216834160860926e-03,-9.788343866340481370e+00
-3.962259483598932694e-03,-9.059412349985307422e-03,-9.789411198418578763e+00
-9.086148422061242347e-03,5.488292506846585185e-03,-9.790681283659852241e+00
-8.166211440509113170e-03,3.067050753006735509e-03,-9.807345242409878594e+00
6.276473380461542774e-04,-1.681600267129922457e-02,-9.791861065601985104e+00
1.729858699251664951e-03,-3.708547085875934374e-03,-9.781953850472051570e+00
1.108574149773506722e-03,-1.784014900350002885e-03,-9.803277621616834026e+00
-4.153333517390328869e-03,2.364224384195390619e-03,-9.770906044380767597e+00
-9.840223422925608102e-03,-7.535522880873834171e-03,-9.791208758140566459e+00
3.437673492752906217e-03,2.449358794467425444e-03,-9.809726556858642255e+00
-1.874613114572880063e-03,-2.983614897836191562e-03,-9.798314556344653425e+00
7.581371011493549979e-03,-1.646276521466378054e-02,-9.814115168581762916e+00
-1.387995679135727717e-02,7.053938196435727108e-03,-9.787363931357393909e+00
-1.394818348382937528e-02,1.077282219030211872e-03,-9.783414491674076174e+00
-4.421713123045772215e-03,-3.525382350878999115e-03,-9.792405288876384617e+00
-1.807019334597845944e-03,-8.258715677562788668e-03,-9.791711978292772400e+00
-8.393175228630965837e-03,-2.782805685122065591e-03,-9.789284643362170968e+00
-5.171629176326375012e-03,4.475126195175612928e-03,-9.794100986036742285e+00
-1.886023317388638718e-03,-2.235545632439992977e-03,-9.797480287159801904e+00
-1.075523453624049365e-02,-1.073903455113317355e-02,-9.785158853646709787e+00
4.159516050030468738e-03,-1.952874507477555394e-02,-9.793749253164010682e+00
-3.186282329742852731e-03,8.532178849903685261e-03,-9.795398486982266562e+00
-5.399749894363633845e-04,-7.262556002057577939e-03,-9.791484217343628060e+00
-1.342606460080329397e-02,-1.306988244478564203e-02,-9.783805338903238891e+00
-8.763862076125585737e-03,1.450202183289965238e-02,-9.790600922837242592e+00
-2.018375538580989038e-03,6.723131772601706815e-03,-9.797985937521101363e+00
4.386856309633518219e-03,4.489738366835403262e-03,-9.797348648695002993e+00
-5.272204621687896862e-04,1.242101372301039446e-02,-9.803333323471273175e+00
2.380472296725832503e-03,-1.490233718570765746e-02,-9.803709348553931946e+00
-5.394103501037101484e-03,-1.009085247105082116e-03,-9.789597533102135429e+00
6.117544961450054920e-03,-5.133225076211211761e-03,-9.802951449342426571e+00
-2.164966977053787208e-03,-8.561953717849901668e-03,-9.787213452485987730e+00
6.990176936048387094e-03,-1.038266494625815321e-02,-9.774811822566691788e+00
-1.544385013804333660e-03,-1.425577869143251734e-02,-9.790525102079714159e+00
9.494842215216944825e-03,2.966015229942308481e-03,-9.775645264010746516e+00
-9.063531407453518512e-03,-7.138421866517794846e-03,-9.792744997733921153e+00
-9.354032539236821833e-03,-3.552966087507699721e-03,-9.787967114003881974e+00
-1.272473101748976439e-02,-3.875862388641702905e-03,-9.800930631833141504e+00
-7.688815589266856550e-03,-4.761414298361072231e-03,-9.794433167953735975e+00
-7.650250918490157127e-03,-6.614372492399285715e-03,-9.784207192955220123e+00
1.152512011437805024e-02,7.395756444316880021e-03,-9.796555511967214969e+00
-6.739563733446622511e-03,-1.109153795552036796e-02,-9.783924664026057982e+00
-1.176972848332317025e-03,-1.260274344905844453e-02,-9.799717349433050728e+00
1.200517389083678027e-02,-5.428263962852935415e-03,-9.800469644904445943e+00
7.133992377865664564e-03,-2.447967516290673086e-03,-9.789100191596798339e+00
-3.722874050650800651e-04,-2.141294583744470480e-03,-9.786756173072207687e+00
3.749035084328917068e-04,3.609027838531882713e-04,-9.806003125550695643e+00
6.126116499270411499e-03,-1.109841535589632840e-02,-9.785398509376102893e+00
1.898487805862767927e-03,3.313298994162230948e-03,-9.801224736304824603e+00
-8.973323794762861488e-03,-1.041646293559772389e-02,-9.801839575746960520e+00
3.328110549218167048e-03,-1.105568739399923582e-04,-9.796564236524123004e+00
8.903346153925318588e-04,-7.144104275840769576e-03,-9.797563972750410244e+00
-5.198068439231456027e-03,-3.004736867056416287e-03,-9.799393258857508116e+00
8.598684746107823629e-03,-5.952083467153947843e-03,-9.778137123673385389e+00
4.280365832051863557e-03,-7.107780504341259901e-03,-9.801219257378308569e+00
2.127641887164577819e-02,-7.133874859791163731e-03,-9.792467949786450632e+00
1.791688508170795639e-03,1.069164949144324299e-02,-9.792090639733002533e+00
-1.345232249832728098e-03,-2.608053051069899979e-03,-9.786057325487455216e+00
4.926318793171340950e-03,-2.787965360154675935e-03,-9.792260442118102759e+00
5.382778943169592295e-03,5.110898362508327179e-03,-9.804694289247889216e+00
1.616351069976699377e-03,-1.499021202709939320e-02,-9.789080771881824461e+00
3.881286445948152822e-03,-1.842184720127153837e-03,-9.785684481116662781e+00
-8.733857285677774224e-03,1.049609127628465741e-02,-9.791838555885165718e+00
5.115282286568600088e-03,6.661812320312403800e-03,-9.816412082637885561e+00
7.965927500319453652e-03,1.980335607893168696e-03,-9.796209387781241062e+00
-1.166650924332624829e-02,-1.496685157928847503e-03,-9.796694553255663962e+00
-1.260940817655262051e-02,5.495794636252432711e-03,-9.797427534749465039e+00
-1.566832570678228231e-02,9.099180897258540152e-03,-9.800158510908602238e+00
-2.993045533662369671e-03,-6.875342827818933626e-03,-9.792476986363340075e+00
6.716874329731023149e-03,-6.993359820703570415e-03,-9.796800940931861490e+00
6.724571197681929353e-03,3.609698706180775041e-03,-9.796545672134744365e+00
2.212899321930898115e-03,2.462139355419105079e-03,-9.795057514776278396e+00
-1.773397448255347461e-03,-7.595463566553459743e-03,-9.794225510472816865e+00
4.006826610851672854e-03,4.617915162124025356e-03,-9.784117425839651716e+00
-4.768594580656852050e-04,4.656488519084502238e-03,-9.789008589383248804e+00
-5.924426311466883966e-04,-1.095794387828083472e-02,-9.792123000206730765e+00
8.938679280740982266e-03,-2.443379410569858357e-03,-9.789569762350263105e+00
-1.340549739055364904e-02,2.728992511359904470e-03,-9.803229785648037264e+00
1.470580229773403753e-02,-8.159414736173794050e-03,-9.784965044071197937e+00
8.544057300331205735e-04,1.541806486248723526e-03,-9.800980051305685947e+00
1.627588548733355754e-03,-6.444911482327549210e-04,-9.807212531051250792e+00
4.632610731939657001e-03,1.136998739994231865e-02,-9.797318489922480111e+00
-2.675316865716809937e-03,-7.303852371535730567e-03,-9.787868876337444846e+00
-6.072406302266197993e-03,-1.296525236757974445e-02,-9.802166255495480485e+00
-8.675298968329235930e-04,1.287652066835709257e-02,-9.797188176435600582e+00
-1.324939465625169085e-03,1.616385951454008593e-03,-9.804004064924242812e+00
7.447197634407804953e-03,-6.312656195632302715e-03,-9.802010672440491845e+00
3.842495209951345939e-04,8.564549858237055502e-03,-9.788712140737386491e+00
-6.182299957046575277e-03,-7.700972827209179999e-03,-9.796278534296950724e+00
8.889283031869083321e-03,-1.006520107490165971e-04,-9.798798064199583990e+00
6.245247313469033494e-03,-4.084183424936524247e-03,-9.795005910510337088e+00
1.158904691067701859e-02,9.382061317942228668e-03,-9.796268382304660349e+00
1.000845711516775392e-02,-5.957085912244718118e-03,-9.791829755213436570e+00
9.467545862938478440e-03,-5.866562432578267122e-03,-9.788488019196215362e+00
4.014680496083854189e-03,7.093921867421813625e-03,-9.799143198990238446e+00
1.497826193404433286e-02,8.144259615104453964e-04,-9.797578582268554825e+00
-6.123483396997701084e-03,1.098890602582922559e-02,-9.791553318120961080e+00
6.848540889123500702e-03,-7.383415158766244886e-03,-9.795353808094825254e+00
2.017121508267324687e-03,5.611608047227064841e-03,-9.796880354915716183e+00
5.141857487847083588e-03,-9.397253790118357403e-03,-9.784956378616941564e+00
-1.094049544725122190e-02,-5.133593049917031109e-03,-9.791548786004442562e+00
2.593365418069877582e-03,-4.155433976264586576e-03,-9.782740528121786738e+00
4.290769194132592647e-03,-7.673405387237044626e-04,-9.791772733543373519e+00
-1.867080067080584271e-03,-1.721264329721964442e-02,-9.784400428200719091e+00
-5.456792286194037458e-03,4.116467562455104583e-03,-9.807866497354025270e+00
-1.096892146844224113e-02,5.598403611675632080e-03,-9.788480139414280856e+00
4.400081616024893554e-03,-7.737705733886340691e-03,-9.801959415072385440e+00
-4.652627696663738308e-03,4.808082295585732087e-04,-9.794464671647977738e+00
9.024265265208242584e-03,5.240025408165642495e-03,-9.793315917248206048e+00
-5.126365749211578976e-03,1.620170668984490404e-03,-9.790472015406754380e+00
-1.058883734683688585e-02,1.615881054812091065e-04,-9.795268630608340743e+00
1.739502701174443352e-03,6.705538830316287550e-03,-9.789327703512430645e+00
3.402282808945449651e-03,7.606034142609223274e-05,-9.796038515581397377e+00
5.691331906778447462e-03,2.564078947189716434e-03,-9.796772112213131933e+00
9.602115489906156917e-03,9.075795239169833026e-04,-9.788556694555985871e+00
-3.048549210921990167e-03,-1.555268866913187345e-03,-9.800404024184139473e+00
-8.745579036926335106e-04,1.579970637092268900e-03,-9.798717243130619536e+00
-1.564139035147115451e-03,-4.456462625925666776e-04,-9.779804931567236181e+00
-1.858330651737464742e-02,8.308137040269293269e-05,-9.784834469670130375e+00
5.769145392089074578e-03,-8.497523782225464839e-03,-9.797491803434263957e+00
-4.988540056911999060e-03,1.259666203176177182e-02,-9.782355113621948206e+00
-2.959440163217716500e-03,-6.202215688898243644e-03,-9.787205191552205363e+00
4.863045249547835389e-04,-6.844598565577383886e-03,-9.784454572518974658e+00
-1.402513835592943472e-02,1.398936054080932370e-03,-9.796339607280621919e+00
-5.600071530744702396e-03,-3.585807058130185878e-03,-9.795484183751927532e+00
9.538625038468325976e-03,-7.154504921279171772e-03,-9.796325288934024655e+00
-9.256354864338215208e-03,9.192879220876748469e-03,-9.788662013930386152e+00
-2.555640136887937048e-04,4.560176124345294464e-03,-9.801280962700817057e+00
-5.164601706277830925e-03,-1.905234702007099811e-03,-9.799415912566400877e+00
8.065421276117697201e-04,9.307326243243227090e-03,-9.797662836759695182e+00
6.240728842761905475e-03,-1.768639747322247940e-03,-9.801228476529493250e+00
-2.240182773846901773e-03,5.864919847155618780e-03,-9.786352510341764344e+00
2.634728282234364161e-03,7.702564452611231766e-03,-9.796803908805044259e+00
2.766014691167602117e-04,-7.525095072825854596e-03,-9.796027182573524783e+00
3.368461759241278899e-03,-9.183256989939575510e-03,-9.791732831254034153e+00
-1.347392599169833748e-02,-8.448406167072194939e-03,-9.801606135960986066e+00
1.856479316218540010e-02,-3.307576804703137030e-03,-9.788591492063053678e+00
-9.440151307308025305e-03,6.795367120743866368e-03,-9.791663023313427416e+00
3.360476373700500060e-03,3.028662419089000156e-03,-9.805082016151299484e+00
-1.207092667956038458e-03,-1.237296238294133266e-02,-9.786421257232559512e+00
-5.709123456250370793e-03,-6.551301149001107285e-03,-9.787850809824295339e+00
8.234037800532260096e-04,7.670169681213742218e-04,-9.790759400238901122e+00
-1.393326768897532042e-02,-3.612326710243150656e-03,-9.801408072241557079e+00
-2.043713605785842016e-03,-6.073021894820877613e-03,-9.798667204643354722e+00
-3.006073542444948066e-03,4.816758004140185567e-03,-9.793308130015672575e+00
-8.162467572462419121e-03,-5.210648883875698342e-03,-9.797635965411345182e+00
3.349092893028881440e-03,-1.337399344422739210e-03,-9.785999223567133143e+00
-2.399788981731549708e-03,1.136910289991209695e-02,-9.796222902031631818e+00
-7.855753800356130587e-04,-5.900572073183861510e-04,-9.787893091101379284e+00
1.407362339640854873e-02,1.403857103011173484e-03,-9.800520428974536458e+00
8.712015898233975084e-03,-1.075109048034612706e-02,-9.784207935441171955e+00
-7.927044983732322442e-03,-9.734735703225482623e-03,-9.800899962738679250e+00
-3.596905567477618349e-03,2.723978100689312953e-03,-9.795005711168277784e+00
-8.118098584353811891e-04,2.048065182288331953e-03,-9.791150717034357243e+00
-1.377129900450328216e-02,1.267304396787628275e-02,-9.798330165698700966e+00
4.416759724379627598e-03,-4.446388910604656686e-03,-9.794709161466665037e+00
3.545037119910955745e-03,5.245729167580506086e-03,-9.795411756764682565e+00
-1.098399547933225431e-02,-3.287082603492192182e-03,-9.785788242698757244e+00
2.565688450017512400e-03,-6.121538189552004454e-03,-9.798067740607059761e+00
3.068307071661194926e-03,-8.708144277898604430e-03,-9.792840500821142768e+00
1.006709837480326483e-02,-8.486015526728321948e-03,-9.790474982849513452e+00
1.125077576651049155e-02,-1.953211405755588687e-03,-9.802250921044134202e+00
-2.321440050164381031e-03,-2.784696402600110067e-03,-9.788267352423947187e+00
-4.748327823670615323e-03,-2.990967035639461192e-03,-9.806325108600070450e+00
-2.360864815379143822e-03,-1.064273409825421644e-02,-9.799916208472339463e+00
4.690092835228438367e-03,-1.484474382559612497e-02,-9.796335019723745319e+00
-1.127426995920231823e-02,-1.109826780250272940e-02,-9.787856745864543129e+00
6.690352206878981932e-04,-2.162360285135054346e-04,-9.804772305281185041e+00
-4.687519197972863489e-04,2.404521869590284938e-05,-9.788608418060698924e+00
-2.885319028886106085e-03,-1.145111796919184508e-02,-9.796105555999632841e+00
-5.544862269883699818e-03,1.281364492838156033e-03,-9.793688029609828760e+00
3.578386043478046490e-03,-2.526174130102319497e-03,-9.790953528808325146e+00
-2.502222127013141884e-03,-8.087602359219781684e-03,-9.785450121075854213e+00
-4.073957789100249999e-03,-8.258001263426030178e-03,-9.782971806153542005e+00
-9.361827861385091376e-03,2.938816592779118237e-03,-9.784605510677787166e+00
-1.506919971797293471e-02,1.572717776215470757e-03,-9.795512286773544020e+00
-4.872829489115535796e-03,-8.988674613773631195e-03,-9.793890612286265451e+00
-1.481711980413410419e-05,-4.080307579042560459e-03,-9.788910501934635633e+00
4.417677121448201384e-03,4.666061472405908656e-03,-9.782615732292779143e+00
-4.555975768940745581e-03,-1.262849845947120212e-03,-9.796571849973142676e+00
-1.420699897566344259e-03,1.147643557604913689e-03,-9.786136200145589825e+00
5.836772152726741464e-03,-8.070414184903909605e-03,-9.787153218398072951e+00
-6.222621824192547772e-03,-8.001005605528133113e-03,-9.784216867671077011e+00
-7.524107318488179770e-03,-2.747161756729727192e-03,-9.784895713551620133e+00
7.273238039598253508e-04,1.377194409031661827e-02,-9.793702132001476102e+00
1.357673217169315947e-04,6.821931137513123980e-04,-9.792984116137640527e+00
-2.598146143453582309e-03,-1.358752978476391281e-02,-9.791410965157115953e+00
-6.638719322686498572e-03,-3.347232054898340112e-03,-9.794830234888436848e+00
-1.656539220518306321e-02,1.380992524117263288e-02,-9.800072561900512014e+00
-5.492722010239989424e-04,1.364987939198338256e-03,-9.788944257116671821e+00
-9.598373884010216045e-03,-1.835171646280341767e-02,-9.795004873313942539e+00
1.128561307894659568e-02,9.759500931605127189e-03,-9.787828911055948211e+00
1.286076028857637346e-02,5.578776769078724017e-03,-9.791403194116091058e+00
2.083799362936480676e-03,5.068053297621014953e-03,-9.803953982851647098e+00
8.233630139500736078e-03,8.084231687418173481e-03,-9.785830882787822205e+00
-1.332116629962348114e-02,1.979153946769330805e-02,-9.798180583579274128e+00
6.738267970176980461e-03,6.445541405226437419e-03,-9.793099021331141074e+00
4.423758817978870259e-03,-3.197745647597627534e-03,-9.796263301531915602e+00
-1.306669185630023175e-03,3.845631399431816144e-03,-9.802736083149893531e+00
8.552199050769841368e-03,1.117538780906387856e-02,-9.796625726422378833e+00
9.807846096663118754e-03,6.477005919797811789e-03,-9.796600601482454707e+00
-1.030546626594638915e-02,-4.683132071098198082e-03,-9.801969425504230671e+00
-6.533650451425391213e-03,-1.169948343687219131e-02,-9.793881851171645891e+00
-4.062895763528062351e-03,5.832284132740364786e-03,-9.792728911657292201e+00
1.166906694054798549e-02,-2.580711216001513406e-03,-9.801172666895878294e+00
1.418559116370719927e-03,-2.441275530086940183e-03,-9.808049894985662931e+00
-5.925490907310214210e-03,-1.383341636994454100e-03,-9.780280948600434954e+00
4.127620820568894330e-03,-5.833462365095136611e-03,-9.787106344267305857e+00
-8.624042439324767703e-03,-3.753413526602898155e-04,-9.787666309063883574e+00
-2.408253480073702752e-04,-4.300222358717169062e-03,-9.802112509350260794e+00
-1.402663656225036637e-02,6.388377756364484704e-04,-9.801820102089227049e+00
1.108074183903707925e-02,-1.429892792256830941e-02,-9.796685119169397993e+00
-1.207134560363037771e-03,-1.784357984915084473e-03,-9.806235092821545152e+00
-9.296152737802510294e-03,-1.470864208969348969e-02,-9.789290466538794533e+00
-5.708585066475695136e-03,9.439016060855941539e-03,-9.783594850987935132e+00
9.175461659768534284e-03,5.310281042733779218e-03,-9.794347546277219152e+00
-1.440227871554821369e-02,-1.080249575826327212e-02,-9.796359620352328434e+00
1.386114788794080149e-02,-3.753713646915294438e-03,-9.790674638914850902e+00
4.312900990123618231e-03,-1.422997712167790732e-03,-9.784172085861566615e+00
-8.417254864412210963e-03,8.226890437610536941e-03,-9.797025792798120136e+00
4.254404513247257887e-03,1.465879123665607495e-03,-9.800498371281912924e+00
1.798366333535879715e-03,1.920854604486349699e-03,-9.808738949100831661e+00
7.929061664921369101e-03,-1.893038314289225170e-03,-9.791996076897939716e+00
-5.239027374758040839e-03,1.175922535838733879e-02,-9.793127101353210406e+00
-1.243529268537162287e-03,-5.057728803984308432e-04,-9.785245643411116134e+00
4.892872074470157838e-03,-3.298356165876781612e-03,-9.797173091133856815e+00
1.358272908313939986e-02,1.019235981059105935e-02,-9.794963390037056072e+00
-8.793357073410052252e-03,3.053823856480417619e-03,-9.788243681844710053e+00
2.322972453423313623e-03,1.807685840236599112e-03,-9.808031442973403458e+00
-1.890002908845694451e-03,6.447310628732666124e-03,-9.783075134211649981e+00
-8.115847886311968948e-03,-3.117939678799837213e-03,-9.788029133670846704e+00
2.751042168481934551e-03,2.788634022096370645e-03,-9.789119948640550462e+00
-1.018794629320680586e-03,1.687874243799711554e-04,-9.790223279846863136e+00
-9.164093304498166156e-03,9.075550549519459387e-03,-9.794244801336731143e+00
1.283608169582103669e-03,-1.020618221875638047e-02,-9.792659991835598987e+00
7.703380113778237823e-03,7.853967916066815179e-04,-9.791670622602371310e+00
8.900548545542289608e-03,6.082103240525622151e-04,-9.780165953399349021e+00
3.675473721101890287e-03,-1.950192279552693175e-03,-9.798059234045682686e+00
-5.832330685457313459e-03,-1.230504813705072609e-03,-9.790523249857109533e+00
2.432858895575215532e-03,6.316549399549325344e-03,-9.791230837133603870e+00
-1.545230243328335213e-03,8.037816319361702159e-04,-9.804828125373019176e+00
-9.644124843946255340e-03,-4.296431746014694325e-03,-9.801651297543461538e+00
5.108265209202884904e-03,4.274371294385568773e-03,-9.794797565457328048e+00
-6.781939399524010946e-03,-1.802631315211935831e-03,-9.787143696817084404e+00
-5.077409906342124357e-03,-2.090894360390388451e-02,-9.797738910731073503e+00
3.221058423422607474e-03,-1.006071621018863466e-02,-9.797867584520508544e+00
5.683909842417559331e-03,1.860315390936021157e-03,-9.797885762307242175e+00
2.028635241875886928e-03,4.454493602053207109e-03,-9.800087992430496442e+00
9.017199663286123339e-04,5.030764614345167689e-04,-9.785542079503100510e+00
5.390329110369754262e-03,-8.318013384478552263e-03,-9.796163641460244875e+00
2.556061531733874585e-04,7.330324830513122725e-03,-9.785701887939751487e+00
-6.940576125541914922e-03,4.383701193211448841e-03,-9.785592933187110987e+00
-1.298084535312642521e-02,-1.158916438476905028e-03,-9.785651244195422649e+00
5.735838547469271353e-03,-3.701872626593551065e-04,-9.797190531695925131e+00
2.086128929503832004e-03,6.102271073024752301e-03,-9.791894974418248410e+00
6.058521265042733509e-04,-3.276184081268833370e-03,-9.793088912864536866e+00
5.848849601857700545e-03,-1.620527371250787135e-02,-9.779862164572627137e+00
1.784885367271626629e-04,-5.164624997105011009e-03,-9.803209346929069312e+00
5.032784915339844935e-03,-2.717263864265173461e-03,-9.784125300507529488e+00
2.482479541175098767e-04,-1.273340358377178690e-02,-9.787060466345026910e+00
-3.003802033625174554e-03,-3.867585114912642542e-03,-9.782197654675204745e+00
3.253798312099814329e-03,-7.237955309451440944e-03,-9.803018723248959176e+00
2.343409627694056040e-04,1.564867917524838739e-02,-9.790593622918875027e+00
-4.977303505356509006e-03,2.820772455378076429e-03,-9.797054399926587109e+00
-3.356360928859815525e-03,-5.224994481306465335e-03,-9.797329941779763018e+00
1.723670717611245609e-04,3.429703424692594985e-04,-9.790132580813830643e+00
-2.573198508235088628e-04,5.392105456483161502e-03,-9.794391995151467967e+00
1.240957181415825762e-02,-1.078780595351749513e-02,-9.797475513984281292e+00
4.701777535148384674e-03,5.617315804318061268e-03,-9.782935141993542416e+00
9.879957876247284776e-03,-7.469233608392277998e-03,-9.795754802410877815e+00
-8.729920382116592228e-03,-1.118651441832274780e-02,-9.793338150889740135e+00
-2.823206992206420303e-03,-4.084268643546233937e-03,-9.802947887811605199e+00
-1.001593230135587251e-02,-3.917595461530783488e-03,-9.784364949759696728e+00
-2.682402268628859571e-03,-6.801271525286395336e-03,-9.797981096321114691e+00
3.278691083397554298e-03,2.919893956530740693e-03,-9.793911274613808615e+00
4.323360210476316981e-03,-9.225538041041802043e-03,-9.800860353832463900e+00
-1.036039113078325580e-02,7.618656096113276752e-03,-9.792680691382747327e+00
2.338986022200771099e-03,-9.286312594185774927e-03,-9.793513588094150180e+00
6.591741762811644499e-03,-4.241181204277522966e-03,-9.793110191698485067e+00
-1.289066209924366038e-03,6.642133760133133238e-03,-9.784973622645729563e+00
1.835679703602765894e-03,2.716702928961215336e-04,-9.804422055190684659e+00
-3.453432785200865468e-03,5.212587926362925034e-03,-9.784851814494059496e+00
-8.013078376186028376e-03,-1.224455591497102544e-03,-9.789515420213081853e+00
1.876844748694813519e-03,8.709658457352331684e-03,-9.798822627894619330e+00
-2.801350154236132740e-03,4.962964561730618882e-03,-9.786008650614183679e+00
3.378120707822916463e-04,5.892027357759252112e-03,-9.804467733969623566e+00
-1.378864624608179730e-04,-4.239740252634320236e-03,-9.804709056466279549e+00
-3.781614232781330435e-04,-1.236115639173170598e-02,-9.797652946143079689e+00
-1.740269467114514620e-02,8.970695148522816326e-03,-9.796063191519486679e+00
-3.395641281600034547e-03,6.914040832072054256e-03,-9.791372916924242276e+00
-5.549832136432947607e-03,3.042112940811212383e-03,-9.792574684885360981e+00
8.744356086463574151e-03,-5.469328098664392925e-04,-9.793850019564702691e+00
-3.146644064113855808e-03,-6.622594318478850373e-04,-9.786946079341502625e+00
6.386396303922212614e-04,2.001658354539586834e-03,-9.795453376341242802e+00
-6.388492600817308187e-04,-9.412183624569289697e-03,-9.784065263489386766e+00
-4.738146450818414221e-03,1.102141788748376566e-04,-9.806872521767536099e+00
6.590545073454454929e-03,2.321610263723357381e-03,-9.794434363245532182e+00
-2.169299011815070156e-03,-7.323528117624562156e-03,-9.793616832798553773e+00
4.732744464563436865e-03,-8.448136810326726046e-03,-9.786411138762169060e+00
-4.722732569030103737e-03,-2.000114409482456508e-03,-9.787667137358505798e+00
-2.790750075047115919e-03,-4.715860468412073122e-04,-9.777784585689577312e+00
5.747725049291943326e-03,-1.135287945186276050e-02,-9.797071273127196278e+00
1.072543535292714081e-02,5.936399498635450828e-03,-9.793447267069888440e+00
5.018386541754274802e-03,1.365398479495753738e-03,-9.798119384192908399e+00
-4.403784250995530780e-03,1.090899932197108776e-02,-9.795153494063670863e+00
-9.316470973734324382e-03,5.643501322549275903e-03,-9.799993247310560207e+00
-8.868304262061308882e-03,-1.023951788041015803e-02,-9.787467031699803144e+00
-3.445153117091578465e-03,2.042467171394331087e-03,-9.797400115269228493e+00
7.818382992635256133e-04,9.665672193067584642e-03,-9.795429452622494537e+00
-3.431885905790496832e-03,-5.798184278181725548e-03,-9.804622394877551272e+00
-9.801777383707783661e-03,1.025128461828126673e-03,-9.788008413072391889e+00
3.845863671951446454e-03,-7.914469331814746184e-03,-9.788652578424866135e+00
1.021794774382823318e-02,-5.331397675011284587e-03,-9.784146275334180132e+00
-1.833438080776376988e-02,-5.498450530903807240e-03,-9.775695456340260492e+00
-5.357117247635861251e-03,-9.821664647229519027e-03,-9.787495077566900292e+00
2.306761814672318375e-03,1.269200722543317120e-03,-9.784461936294752249e+00
-4.837117549972022937e-03,1.032908579391955683e-02,-9.801179892972113450e+00
8.059573271753260951e-03,8.539538371051954083e-03,-9.792822166353156277e+00
-5.357677609619666305e-03,4.442591412822634658e-03,-9.793515080809166662e+00
5.771969553522043363e-04,-7.109817708348830159e-03,-9.795513159337899012e+00
7.640743877340664715e-03,1.000956839298966679e-02,-9.780129752604395321e+00
7.169272760861421581e-03,2.734639553456637805e-03,-9.784674584915281415e+00
3.339735131832031328e-03,1.154145441762371126e-02,-9.789936096072162641e+00
-1.081448542573678132e-02,-7.587893903937113597e-03,-9.789792171424737788e+00
2.443950196835827874e-04,8.624704066158566003e-04,-9.808410040170544519e+00
-9.366000536879756991e-03,3.189000310276749166e-03,-9.783692764603831193e+00
1.416420960020920285e-04,-9.884368625404657896e-06,-9.782807316028359068e+00
-6.048963837493485235e-03,5.499553208761197472e-03,-9.798785829348267029e+00
2.482371834603213940e-03,-1.896820466275478314e-03,-9.786975111122126592e+00
9.108899481164219741e-04,3.162855721405307460e-03,-9.797364886263125072e+00
4.305469685350693000e-03,1.795878309287050716e-03,-9.796062466053086837e+00
-2.044832609445589380e-03,6.514579729229377780e-03,-9.789893662366937477e+00
-1.998560727704668145e-03,-5.079211603929394483e-03,-9.791149166039289753e+00
-3.158563845322007353e-03,-1.248468962944557573e-02,-9.798931869862702371e+00
5.706993575556968019e-03,-6.983306945050005154e-03,-9.779575735277465043e+00
-1.620515919705407207e-03,5.376393815507432561e-03,-9.783764573861750691e+00
-3.069357868204834836e-03,-1.758395871981399249e-03,-9.794705108597730359e+00
-2.581698461598382673e-03,-6.514702285699328597e-03,-9.795979375012404233e+00
-5.891195566838794764e-03,3.876661313548570784e-03,-9.792200231617917083e+00
-2.530255218308242061e-03,-5.830402710895458323e-04,-9.794766701702901202e+00
1.134016287439865503e-02,-1.218618319166294914e-02,-9.794061599727333700e+00
-8.057451283067080389e-03,-5.263163160224603940e-03,-9.782389024464938743e+00
5.317946319705528155e-03,9.827555631329114826e-04,-9.789893275676099904e+00
8.328860317878655469e-04,-5.808443857271193209e-03,-9.780148899352328229e+00
1.869672914297830762e-03,-1.292409126615141554e-05,-9.784706023157415444e+00
-2.150601423346984887e-03,-4.786884825221961008e-03,-9.799960902375159932e+00
7.862543912409809214e-04,-1.589794972854582586e-02,-9.787987635805446729e+00
-6.212505718334734254e-04,-3.301336466763537744e-03,-9.797276167651071788e+00
9.006223762800472793e-03,9.189534467380384031e-04,-9.789542561300923040e+00
-1.998668652887392472e-03,-2.901863075302893447e-03,-9.792235718485114759e+00
-1.003693025631094589e-02,-3.849415235858726775e-03,-9.793434222549540991e+00
-6.652741938723821975e-03,6.457429061726210288e-04,-9.774415242008350546e+00
4.429524831359123692e-03,1.251837662334492202e-02,-9.789632854088008429e+00
7.960281322557563599e-03,-5.681452414871866058e-03,-9.784480028826067155e+00
-5.775535416666586694e-03,-7.484901832908873349e-03,-9.804134848819463954e+00
5.469197811277744063e-03,-4.959363097898447648e-03,-9.792999593360672606e+00
-4.183756229540271619e-03,-1.109256559515541495e-02,-9.793032758147115047e+00
-1.317647997572472807e-02,-3.618748549433432101e-04,-9.783027273487238773e+00
-6.870010695179155739e-03,-5.395739153529963139e-03,-9.794108910364343501e+00
-3.278408422870247949e-03,1.156826563166712951e-02,-9.795534093889751048e+00
6.130248989720279290e-03,1.623288882532175452e-03,-9.792582063776212209e+00
1.431011921998764924e-03,7.631714789399858360e-03,-9.802186989158954589e+00
-1.347506039660882851e-05,1.571659520695833576e-02,-9.787933671274107184e+00
3.800760792662493510e-04,-5.571524016445237107e-03,-9.795812804467198376e+00
1.783292894959904703e-03,1.812422327838569391e-03,-9.792044343862363220e+00
1.120953309267948544e-03,5.001255573497872912e-03,-9.791734887936355491e+00
1.300744516188599188e-03,-3.375150412166315773e-03,-9.797212760820206867e+00
-1.006293648171974545e-03,-7.518240723690917775e-03,-9.796610546230008154e+00
1.939636539047573296e-03,3.659246240652864503e-03,-9.773667121085473752e+00
7.415261497494114729e-03,6.242497312157312649e-03,-9.796892034388202219e+00
-6.921783139882161338e-03,3.639015607076838670e-03,-9.794918038410621364e+00
9.049403014639563134e-03,-9.884039765006572692e-03,-9.800729456526360295e+00
-9.149194562565956743e-03,-9.817907964702252827e-03,-9.795441213213319287e+00
-3.454601961380249567e-03,1.243798379438744266e-04,-9.804545435534999243e+00
3.442195628381309984e-03,1.923782782066374084e-04,-9.787121335624815899e+00
1.618536412662244933e-03,-6.582107659828672838e-03,-9.792460127003149495e+00
-8.248977379213075223e-03,-6.555623677593726793e-03,-9.810336419205071934e+00
5.007507614257575811e-03,-1.141799941329189362e-02,-9.792220245349003704e+00
-6.534742696534845061e-03,-2.393143670034007797e-03,-9.779063122029610255e+00
-6.144805883903393766e-03,-4.177959692600366134e-03,-9.794515674139740113e+00
-8.427374427548586441e-03,1.029490467064312319e-02,-9.799549761709361206e+00
-6.831093700981976345e-03,1.656608185848515132e-03,-9.783625341664853536e+00
-9.173500669958841239e-03,-3.671580060618209913e-04,-9.787687939738439979e+00
1.550206840971369464e-04,-1.242730754140730382e-03,-9.794946229481874767e+00
-4.992219203793296037e-04,-2.904406259260113379e-03,-9.790187575891000193e+00
9.150131941437017469e-03,5.010554348311132070e-06,-9.796173489791884847e+00
-9.237309598009089268e-03,-1.853886495002177517e-02,-9.784008471180250410e+00
4.478682103800669771e-03,-1.870192813990235667e-02,-9.801611105398107426e+00
1.158476338220194336e-02,1.802376529085158779e-03,-9.802617257642642912e+00
-2.541852917014389163e-03,-4.613553599511546581e-03,-9.792437880565106667e+00
-2.222029636208926618e-03,-2.447448458433761510e-03,-9.794059597235881043e+00
3.034795748805128434e-03,5.100587608277955959e-03,-9.792657647451443736e+00
-3.976382037112914832e-03,-1.768303962443663543e-02,-9.790667122799860067e+00
1.758274600666014315e-03,1.070675188951547650e-03,-9.791525153575625140e+00
-2.032441386198446769e-03,-1.248021835477298135e-02,-9.787116881914689870e+00
-9.458458654306322114e-03,1.763650320023365733e-03,-9.788424559339228281e+00
-4.810291796518684736e-03,3.823539811737964103e-03,-9.792694676380818919e+00
5.600967171844628903e-03,-8.323613888614852380e-03,-9.799489627505025169e+00
1.213907701787240480e-02,-5.865779031362242449e-03,-9.797358397225309545e+00
-1.208573593568479376e-02,-2.131932991496394546e-03,-9.802292760119003745e+00
-2.329248587131687795e-03,1.057128822271955620e-02,-9.801054604649795721e+00
6.347264371594445349e-03,1.937340841162666499e-03,-9.794824016775768527e+00
4.541836177589869076e-04,-7.856837212014078581e-04,-9.796546587423696550e+00
4.136798479980431827e-03,1.850035558467684298e-03,-9.799747741968639403e+00
-3.404170009380866075e-03,-4.227011512875179962e-03,-9.788227853692472280e+00
5.668328144030370351e-03,-1.254819750412689006e-02,-9.788926320454269359e+00
5.476588926570238403e-05,-6.488716123288129113e-03,-9.779537223340252439e+00
-2.090263034390369215e-03,8.085313741457931733e-03,-9.798639825604299247e+00
-8.865026517741514400e-03,3.067056878792035531e-03,-9.788124259582943409e+00
2.217163368171147075e-03,4.913569025114611355e-03,-9.799142337402113156e+00
-1.310597203438845781e-04,-6.800759170925145970e-04,-9.792588782320656549e+00
1.410409176084342388e-02,7.495852003158812518e-03,-9.801217821687954412e+00
8.818464481046704891e-04,-3.857729855722188267e-03,-9.798029042132469613e+00
-7.975453982803273195e-03,-1.238464594911298927e-02,-9.782870128944274768e+00
5.313516743507582657e-03,9.553055262313713686e-03,-9.800063336470216768e+00
3.997339764276390366e-03,-5.189509130371338860e-03,-9.792594150377816220e+00
4.740417367933246612e-03,-9.416299243302005215e-04,-9.789922024283692181e+00
-6.859240825255501044e-03,5.857763305586495550e-03,-9.808595241520391639e+00
4.230306355015394336e-03,-1.728103680584309760e-03,-9.799267025107887719e+00
1.073336851833769749e-02,-7.043650786361024298e-03,-9.801080073478715349e+00
-3.917820678092353778e-03,-1.266002228806109575e-02,-9.787909035351036735e+00
-6.771279219589912066e-03,-9.275664850589499313e-03,-9.803989167291360829e+00
2.032706614635966264e-03,8.871455502302972966e-04,-9.787596212698685960e+00
2.519502630745968329e-03,2.148497091622664831e-04,-9.793897785209944473e+00
2.993566581141200722e-03,-6.292529580950031402e-04,-9.779394609210493527e+00
-1.062167055594125152e-03,3.201015148508877702e-03,-9.789126689749823029e+00
-2.445802971999713315e-03,1.002509497526867096e-03,-9.799766352611280595e+00
2.148956366290358060e-04,1.656583544092199347e-03,-9.785922060689753010e+00
1.438372253115479359e-02,-3.250995838237959526e-03,-9.783539738026417965e+00
1.480223579707309889e-02,-1.415077826059812222e-02,-9.800800537463846496e+00
1.212978019505181471e-02,-1.497612373818140233e-03,-9.799913320445776677e+00
7.832187209557774782e-03,-1.361856841083393561e-02,-9.815048349346200851e+00
1.772732866953499612e-03,-4.842387013540924538e-03,-9.793867251260467199e+00
1.941603982971521272e-02,-5.514813476654889524e-03,-9.783517340832979414e+00
1.132624170708429988e-02,6.977029156612902377e-03,-9.794329609819575566e+00
8.432896718291801527e-03,-9.228021610891116652e-03,-9.787915294001708233e+00
8.829613303826050951e-04,8.219797085112843030e-03,-9.792006463055793475e+00
3.447288428406727369e-03,-1.070616996406732052e-02,-9.802051274552569637e+00
1.049057463375849091e-02,-2.327291267542398821e-03,-9.786826665070023523e+00
1.028816603935934007e-02,1.094688716418325963e-02,-9.790761892526012033e+00
1.216547064767678179e-04,-6.304198047700338911e-03,-9.789130828790657546e+00
-9.566256564195017506e-03,-3.464721024282052531e-03,-9.802255860431619894e+00
2.771054139178992775e-03,-4.281270214598375309e-04,-9.804238539471603175e+00
1.123442641014871712e-03,-8.816069217383565304e-03,-9.787641481538400967e+00
-1.223942787405304586e-02,4.093373611896003461e-03,-9.789310091877656106e+00
5.988607950887987232e-04,1.165505999670332811e-02,-9.802422814434903486e+00
-1.006265734882491776e-03,-7.223973149715970377e-06,-9.801499406458782815e+00
7.158967802856569008e-03,6.111551785958019376e-04,-9.798465674612279130e+00
-1.326274009516919747e-02,1.220592799429936690e-03,-9.805507712231680273e+00
-7.315150144759502426e-03,-7.238475522054427756e-03,-9.793968347038166655e+00
4.842820558558257223e-03,6.540584895000166321e-03,-9.804513402868190397e+00
6.995753537931245075e-03,4.876231764912919431e-03,-9.804588241195274279e+00
-3.962571515913662287e-03,3.911042331674398874e-03,-9.790653463511990395e+00
2.725887711317130820e-03,3.358467160031804177e-03,-9.779831132788403991e+00
6.138281061185889460e-03,-6.150903405848781764e-03,-9.796316329230776887e+00
-6.439019991849622218e-03,-7.256474362039976728e-03,-9.801419080219789137e+00
1.399900084458144888e-04,6.789659995299096584e-03,-9.802292110812778958e+00
-4.765931433114337090e-03,-1.045932612748820371e-02,-9.801475118365722494e+00
1.130706599530925324e-02,-4.006273862318322949e-04,-9.788316870282470106e+00
4.831021753449866421e-04,-1.290323087856207890e-02,-9.806532874188956583e+00
-3.451300643051680508e-03,1.344925560945213483e-02,-9.796697556364229342e+00
3.835399812630130908e-03,3.784671549556861258e-03,-9.792769636024489799e+00
-1.515023599927914962e-03,-1.939270362540610262e-02,-9.796745556573114300e+00
-4.225418800894881221e-04,-7.291745441715803341e-03,-9.784783885004669557e+00
-4.238517988679281804e-04,6.842787926684410112e-03,-9.796830705398015482e+00
6.976779350831571920e-03,3.492630023590909214e-03,-9.784307581570169887e+00
-7.021617857533803478e-03,3.434551166053034267e-03,-9.789123792556024384e+00
-3.827241449462957194e-03,-3.173908297237513707e-03,-9.793806037241488127e+00
4.722519965781451882e-03,-6.875528320684036292e-03,-9.795719638848645161e+00
8.648353754756315723e-03,8.985519772760140571e-04,-9.781608899033884086e+00
-8.768148657752680361e-03,8.218540225077407974e-04,-9.788850042796479300e+00
-9.878134812304172063e-03,-9.178494367642450052e-03,-9.812514833732052466e+00
-4.430991498251518612e-03,2.536014845099921616e-02,-9.795511487619496194e+00
-6.256415381225576694e-03,2.337680536118147238e-04,-9.796300018744057425e+00
-9.442990016531112481e-04,2.148909462924241103e-03,-9.783732499255050286e+00
1.225398262297265010e-03,9.885275744285623375e-05,-9.777340691143621143e+00
1.009543241342606042e-02,-1.453981010331093990e-02,-9.795789087831433761e+00
-6.819181902514301688e-04,5.738104141144209983e-03,-9.786201119100127244e+00
-2.892202767909407470e-03,-1.222939568437225559e-02,-9.801231395833641002e+00
-1.749596037403343407e-03,-7.328944041731148482e-03,-9.798154809780132979e+00
-9.325671533048789791e-03,-1.696080690704523247e-02,-9.795687933468801845e+00
6.948758579477459264e-03,-8.987291181187670452e-03,-9.801867949584549322e+00
-2.731950802074993145e-03,-7.869980928040787825e-05,-9.799638717604189253e+00
3.200753999833255443e-03,3.282280442575488677e-04,-9.794919147926236747e+00
-9.656886784697572487e-03,-5.373351131473831990e-03,-9.798067415730589147e+00
1.175754339211166092e-03,4.614326078894288863e-03,-9.784755980973038447e+00
-1.409770780611685828e-02,-1.051209712408147229e-03,-9.799713650901493267e+00
-1.144392010944909714e-02,2.099972799111148036e-02,-9.797585985987026902e+00
-1.087747355190105993e-02,-8.989946030880246672e-03,-9.784319231727167221e+00
-1.316191138134315333e-02,-5.291164710992623393e-03,-9.790995312285042829e+00
-4.354641700883891096e-03,9.469743590263402910e-04,-9.793361856746933825e+00
-1.010193897070736126e-02,1.890339172592863867e-02,-9.797565081062160175e+00
6.178376474899021330e-03,-6.350680648853450610e-04,-9.798304224516110494e+00
-1.701532971470690742e-02,7.196457315768251678e-03,-9.800004644342198645e+00
-2.607939276883612916e-03,-1.069205257140881877e-03,-9.795113357241989505e+00
4.037323978988291255e-03,-8.787266217372888960e-03,-9.792067754363094068e+00
-2.386976504930248509e-03,4.152018158432279823e-03,-9.796635110001963298e+00
1.458330554778908879e-03,1.061820233799963542e-02,-9.783560657862860666e+00
-1.409070911980576588e-02,3.475404750644313714e-03,-9.788731762311808637e+00
9.559970995771586814e-04,-2.695517916223270569e-03,-9.792654958330810899e+00
1.280606472291981150e-02,-4.497412104893427388e-03,-9.804092430285949789e+00
5.345223753255950311e-03,-1.792607359817964367e-03,-9.796641738737395855e+00
6.481477256856966497e-03,6.956953385830869953e-05,-9.785406474446737946e+00
-4.270015953468610757e-03,-5.317263736348418679e-04,-9.797949769931756592e+00
1.852937145473413294e-03,-3.810128918426515694e-03,-9.796131078607288600e+00
1.222418082298567035e-02,-5.522881470582096178e-03,-9.789329541635057197e+00
-3.319620526377612627e-03,1.184129473497450577e-03,-9.793659850893792651e+00
1.296957739594926419e-02,-1.078272664146458226e-03,-9.794036464292585009e+00
5.350016308542735605e-03,6.133901289563439829e-03,-9.783525604696590605e+00
8.945518468155715108e-03,-4.687570628213857081e-03,-9.783046083256031977e+00
-4.480761576681845278e-03,-3.401731271432361248e-03,-9.800985292053782771e+00
2.026738730317938220e-03,1.287369831417948217e-02,-9.794017081387828227e+00
5.209037275728429801e-04,7.533355256911091619e-03,-9.799386240917254298e+00
2.033800698791425870e-03,-1.468916723277493425e-02,-9.792265155256048459e+00
-5.943837706653783658e-03,-8.898518990091844674e-03,-9.798944986799911661e+00
1.032409048121474618e-02,-1.765647744968188923e-02,-9.789972029959614019e+00
4.735554508688148462e-04,-1.355017113128800972e-02,-9.801419061722697279e+00
4.458635863973765649e-03,-6.944011784961897499e-03,-9.794538111301511307e+00
8.297705472937030521e-03,2.866955483706536655e-03,-9.789454038189289165e+00
8.436012621786443191e-03,-1.126721477817891302e-02,-9.773943959588860864e+00
-1.386700555354405777e-02,6.805348819758944012e-03,-9.788217414354104307e+00
-2.526504712826874947e-03,-8.767246365162014582e-03,-9.792164625837914471e+00
-1.263135645551097079e-02,8.841393309521751020e-04,-9.803820914713394785e+00
4.647873432143505290e-03,8.866856441858500526e-03,-9.796661049154209877e+00
3.969636677563534270e-03,-7.176887356768398528e-03,-9.795904233336003131e+00
1.523326841595042331e-03,5.131688527778711928e-03,-9.804026690693879331e+00
-1.857397777931927641e-03,1.731555709588871242e-03,-9.796177408234052919e+00
-6.278368567776028766e-03,5.660867528251097361e-03,-9.792682216181120225e+00
1.447822456654774192e-03,5.644849517691644288e-03,-9.789244939590943773e+00
9.427188365856544253e-03,-2.122396960210029028e-03,-9.796017862860187719e+00
-1.053688419138317130e-02,-7.021622702167517639e-03,-9.799477234818475324e+00
2.589766966897236178e-03,1.083478998307436762e-02,-9.797445066058802610e+00
-2.724541878180901182e-04,-5.881806502741954677e-03,-9.793767123832715527e+00
-7.083582070841769676e-03,-3.701135857778723847e-03,-9.792872108946554022e+00
1.374327455842940318e-02,5.881903298316046302e-03,-9.787935022773437410e+00
3.229403213475441772e-05,-2.243292966436024986e-03,-9.782035600071107950e+00
-2.981661547461527534e-03,6.898287133267591749e-05,-9.795361175495481021e+00
-5.904906874959102263e-03,-3.720749920449200557e-03,-9.793879754366766832e+00
-3.229271881833180834e-03,-8.864332021638884201e-03,-9.787885358875287878e+00
-2.589253176084702068e-03,-1.242558989357236618e-02,-9.798132015189413124e+00
-7.042717038896370921e-03,3.583850527633635971e-03,-9.795412828709398667e+00
-8.051937316727666993e-03,8.251473733823044485e-03,-9.790174580439899188e+00
6.342677735829690489e-04,-9.571516052503606029e-03,-9.795728488493899988e+00
2.863556454148783424e-03,1.076858052120815111e-02,-9.799412988755006992e+00
6.013823742620647873e-03,-5.106259660276969529e-03,-9.792621881651678351e+00
5.205907886128355658e-03,-4.625615431347966482e-03,-9.810578698498527928e+00
-4.733329348874601612e-03,-5.561854902162472955e-03,-9.797876150196906053e+00
9.377180192616074716e-03,-9.697804261357604802e-03,-9.789279838220611651e+00
3.164562615315739003e-03,9.992509950440854605e-03,-9.794809208929907030e+00
-5.344647851366124414e-03,-8.683512868673644303e-03,-9.789545644432520177e+00
-4.529644779236887027e-03,6.399465466271169259e-03,-9.789868804703283800e+00
9.398497396873922629e-04,5.320521219916069661e-03,-9.784293941427051777e+00
-2.763395071741690801e-03,-1.433094013649007263e-03,-9.781490608128915909e+00
1.159285041099265140e-02,8.882776613023083030e-04,-9.771030656780247625e+00
1.775288362388354607e-02,-9.353529302641765131e-03,-9.789549506226338238e+00
1.531937233684279101e-03,-6.875864728617744892e-03,-9.800237817153316655e+00
-7.111879126051380909e-03,3.628408805022919487e-03,-9.785749634428322352e+00
-6.207886955726609965e-03,-3.393512667546404876e-03,-9.791879621451791138e+00
-3.915504224415571402e-03,-9.639319334796690730e-03,-9.786139142727556361e+00
-1.034150614004389346e-02,-1.985504029974098639e-02,-9.781957021113830919e+00
-4.234902394976849428e-03,5.184547931906292872e-04,-9.789344793929483757e+00
-6.968060812654071519e-03,4.260011596083784942e-03,-9.794905707290167740e+00
8.481873149897556623e-04,-1.267257097878282668e-03,-9.790106827480803631e+00
-8.576310881067984379e-03,-2.924420340339248595e-03,-9.787961332777378232e+00
-3.519747272581382207e-04,4.122614870320636012e-03,-9.796154707627524161e+00
8.088208896778942281e-03,3.504282110646477280e-03,-9.795647925909143794e+00
7.802115351141131021e-03,-7.536656954209811077e-03,-9.785236206960529870e+00
1.171061468154255963e-02,-1.582970054422168718e-02,-9.812132665004249077e+00
1.083157634543110807e-02,-1.194568198480592223e-03,-9.795811462769249189e+00
8.310962028524444822e-03,-8.134269276257967418e-03,-9.803322034811788654e+00
7.620392068697393398e-03,1.256822461029288851e-03,-9.785631122126885018e+00
6.195746452481403280e-03,4.209176132388223884e-03,-9.789972455921835959e+00
-5.583413982356606395e-03,-5.613611637211630805e-03,-9.782572411115740607e+00
1.028315944395604038e-02,-3.480438456398928827e-03,-9.781104440706954506e+00
-4.555244009482474661e-03,-7.594545686945390617e-04,-9.799602198018463994e+00
5.934487963091760430e-03,1.488170463539106002e-03,-9.799290173069719501e+00
-1.028569343002826673e-03,-6.446957850779575817e-03,-9.794218160603673340e+00
9.710307292240894297e-03,-5.606114204955995250e-04,-9.792382354329570049e+00
1.558575869306164791e-02,-9.187591887132252801e-04,-9.779064859154415146e+00
-1.335012914471964086e-03,-1.009697982864825490e-02,-9.794384808541121146e+00
-6.109730418888135832e-03,1.124466014683676331e-02,-9.787526278733473362e+00
-2.599845066092963067e-03,-7.409589630599340386e-03,-9.784215886100806614e+00
-7.711726038579749982e-03,1.300572570334808083e-03,-9.798263672533673585e+00
5.914098753221195930e-03,-1.322489855994405392e-03,-9.796690566847969350e+00
-9.660873476755572897e-03,1.242387885718138248e-02,-9.795046142875827755e+00
-8.534083977982016150e-03,-1.395131798791070590e-02,-9.798578516276329253e+00
-6.056401957647734868e-03,3.888249806114058189e-03,-9.790535184182820316e+00
1.487497817903174480e-02,-6.546790622139514633e-03,-9.792307550969484353e+00
-2.976813945281702335e-03,7.807456022263497414e-03,-9.800908103934142801e+00
-8.097391693183400227e-03,-5.692132763797399381e-03,-9.798050879259058377e+00
-9.438846490290673380e-03,1.460578927225089294e-02,-9.801502154982072668e+00
2.490983067293759973e-03,4.917963102336114431e-03,-9.804934598917235178e+00
3.008459331348127541e-03,-1.299559385687944907e-02,-9.790321104586872991e+00
-8.129601607763602654e-04,3.527170594955397059e-03,-9.804981966840012220e+00
-1.262643992927356233e-02,-2.360484922525243629e-03,-9.780271625435618787e+00
4.883156518386067187e-03,-1.092460852326635878e-03,-9.799805832273893458e+00
7.824183424908579421e-04,3.842392749222328305e-03,-9.801006677622590146e+00
9.360545171287103705e-04,-9.394267540600242938e-03,-9.795205231780180100e+00
-9.862044313936453588e-03,1.347270189774229339e-03,-9.793054734879707013e+00
9.509446933699086321e-03,-1.399278350775165968e-03,-9.800443858384401352e+00
7.070518573601799117e-04,-3.594146859833635167e-03,-9.790202484713635300e+00
-8.640645828499446748e-03,-7.684201491082617158e-03,-9.790800767354014056e+00
-4.061484378991603479e-03,3.586590957228343209e-03,-9.794332060087615588e+00
-3.876586229210058059e-03,-6.168060199337914613e-03,-9.786199603101573885e+00
-1.311752502835306783e-02,9.959793394402628383e-03,-9.789851971538059416e+00
-8.386288595890346170e-03,4.462715745844154577e-03,-9.805380007621776528e+00
-2.581217352179455103e-03,4.569742432995549906e-03,-9.795348094232046776e+00
-1.790591609992199995e-03,8.480573219391945514e-03,-9.790243275659337385e+00
5.532459853959852472e-03,-6.064976297749270252e-03,-9.794419392292578408e+00
9.805142104803279968e-03,-3.991993864900200174e-03,-9.798099107986878664e+00
-5.703617798483415907e-03,-1.228548241781067703e-02,-9.800819375432860525e+00
2.890112490664175325e-03,-4.038768480771198766e-03,-9.792609911313602922e+00
-1.430396609953621390e-02,-1.154608366398851473e-03,-9.789376456561004858e+00
-1.145578645405654489e-02,-4.788081679024865436e-03,-9.795356146810336284e+00
-4.605374589636017715e-03,-4.024441815755602087e-03,-9.809390939838147361e+00
2.157897506474340966e-03,-5.722173741251604905e-03,-9.792545315572152020e+00
-1.861998115744714069e-03,-1.115754647178777634e-02,-9.786240552485864441e+00
-1.727745723080152977e-03,-3.104475035854410356e-03,-9.802382094744837460e+00
1.632218452763890826e-02,-1.674531019712384222e-03,-9.788170972765879441e+00
2.528535334913616962e-03,-3.182745329616836275e-03,-9.803329793656562430e+00
1.028003506672821657e-02,-3.969233660593159997e-03,-9.803426458311161440e+00
-5.237550329533159979e-03,-2.546300425039812847e-03,-9.784385487397806003e+00
4.827906390703957766e-03,4.502723748313622147e-03,-9.774365509193621904e+00
-1.049838670745208711e-03,6.127008832430307604e-03,-9.800608089440327575e+00
9.827807815579002806e-03,7.190160586543937679e-03,-9.785595225507753625e+00
4.910386357533081357e-03,-9.213858047752141768e-04,-9.788263908266673141e+00
-1.044827341874149038e-02,-3.641849558765852118e-03,-9.790979331328113489e+00
3.281846963386183917e-03,-1.997072303170342039e-02,-9.792162027482921971e+00
-7.772334280977231599e-03,-3.220035524804488493e-03,-9.789228071532553699e+00
-3.652373470427363288e-03,-2.538567109645579328e-03,-9.799475210383384649e+00
1.098400385571119547e-02,3.975114167383643482e-03,-9.794112271708177886e+00
-1.958686712118317200e-02,-1.888823363449511350e-02,-9.788077637087312155e+00
-1.727691133929183448e-03,5.418465672165059636e-03,-9.803766445951277220e+00
-2.042399413382183383e-03,1.599781895521064194e-03,-9.782142004031172178e+00
1.518915219731511133e-02,2.017561082432830707e-02,-9.802310658320180892e+00
-2.322358869147574719e-03,4.807190348009591011e-04,-9.804069889838268992e+00
-1.542141946195829932e-03,-1.189595489884165240e-03,-9.792143093599820602e+00
1.731568085957223280e-03,-5.348254598725043704e-03,-9.794769179667651926e+00
2.116831999722215609e-03,-5.123264609161304502e-03,-9.786746797161685052e+00
2.552188786462059045e-03,-1.472902029805507954e-02,-9.803299256281691854e+00
-4.116976195402131597e-03,-2.095433883365781930e-02,-9.792505500000540763e+00
1.200608197498034509e-04,-1.213679594507305424e-03,-9.785825369474347113e+00
-3.239589301518676530e-03,-5.620717578111983533e-03,-9.795204366882463987e+00
-1.527886130391511305e-02,-3.489229054913565824e-03,-9.802910559400457302e+00
-5.399106559002491736e-03,1.159141409421374442e-03,-9.792236127371335641e+00
-3.697870241325133291e-03,1.241056616088472876e-02,-9.780748433194080604e+00
-9.024600259820549433e-04,-9.688682026607246464e-03,-9.789259102280945868e+00
-1.844474336159453382e-03,-2.729673224364246534e-03,-9.776056095603891549e+00
7.598685433039157472e-03,-1.513355634111123761e-02,-9.789718932259575013e+00
1.890818355358497849e-02,-5.262812727804066538e-03,-9.796588153764155038e+00
-8.828071468748449613e-03,-7.924791028911793572e-03,-9.786015465442503114e+00
3.579998620052073088e-03,-1.888303443274524755e-03,-9.791801705395203115e+00
-1.753928655598166117e-02,-1.088195712582485514e-02,-9.801662324684373928e+00
-2.881450892155564946e-03,-1.669198326932878548e-02,-9.815536880393262109e+00
-4.947483708070984573e-03,9.635040995115595926e-04,-9.779430449555167826e+00
9.471843728854611186e-04,-1.144913049372784687e-02,-9.794528363801656923e+00
4.369954945552148411e-03,2.992296199770929591e-03,-9.798597468757630935e+00
5.139553464496829014e-05,3.584037250573855922e-03,-9.782382231243827775e+00
-7.451523076823960649e-04,3.654457427150838416e-03,-9.784905099995979683e+00
5.920296652912520295e-03,-2.369472053093093361e-03,-9.805736605291935248e+00
-5.674620369026692028e-03,-1.109712057423833421e-02,-9.793147735232970774e+00
-8.767447943539672869e-03,-4.738897281540531935e-03,-9.794210145288230862e+00
-2.970020502570014549e-03,5.731965323032635687e-03,-9.793305406106741273e+00
-8.965209037500884259e-05,4.369623770610522439e-04,-9.785277068478491103e+00
8.461765287810570080e-03,-6.852774952388899360e-03,-9.788040454545805957e+00
-2.216434985253724725e-03,-4.842484530028284481e-04,-9.792889542391630897e+00
-6.333489099045617500e-03,-3.274185768827349644e-03,-9.797406778193153087e+00
4.737676948041967540e-03,-7.811211728360190933e-03,-9.783813925270697709e+00
-1.537431975456232192e-03,-2.907769157759994456e-03,-9.776133981059670575e+00
6.093350730072531925e-03,8.600402021610550202e-03,-9.785345302296640568e+00
-3.827110812475209393e-03,1.322309117044981157e-03,-9.795453197692332026e+00
1.849053408054195926e-03,1.693662624889932409e-03,-9.798132221072206605e+00
1.018045888965688622e-02,-1.107398673983966400e-03,-9.790907334659902261e+00
6.931251964197073998e-03,-1.097631219255847156e-03,-9.798070164575277019e+00
1.192795017108305190e-02,-8.521444955866836618e-03,-9.789736057840855210e+00
4.881290308692647767e-03,6.077931293902168186e-03,-9.797226547945902198e+00
-8.538212443105493805e-04,3.438274575208254136e-03,-9.796741034014115002e+00
-7.488300246797436471e-03,-1.644995030581359718e-03,-9.796686201536049410e+00
5.868475612456284206e-03,8.832504195556355533e-03,-9.799457613361420627e+00
-5.235077272262204408e-03,-7.841060080074005109e-03,-9.790218751953412735e+00
2.124091737805492309e-03,-1.392149220308216192e-04,-9.792848128557869458e+00
1.952551160313421505e-02,8.807355125978247583e-04,-9.785354360470977397e+00
9.965669201264079971e-03,-9.533276421528562306e-03,-9.796264179040470310e+00
1.110093512543231138e-02,-3.979262410687431015e-03,-9.802616908667788564e+00
-1.420118921930815922e-03,-5.772806134148678395e-03,-9.796660337923194461e+00
-3.632468165216715984e-03,-8.160587249123107956e-03,-9.794604261001541801e+00
4.242187548487707204e-03,-5.456777804052469899e-03,-9.805467337534800265e+00
-9.611727309181921849e-03,-7.151648794214245618e-03,-9.795500009933867602e+00
7.118405646532218996e-04,1.627735435232559660e-02,-9.795644008867343544e+00
1.174061542038553480e-03,9.882585676052301968e-03,-9.796371085241494470e+00
-7.484959406666795087e-03,-7.938460329177391556e-03,-9.779371097410493263e+00
-1.303864877550198025e-02,1.599920200597663164e-03,-9.784505557573856649e+00
-1.054697113339582611e-02,9.184791328888086345e-03,-9.780422636577890572e+00
6.297566174040840001e-03,7.042550667530840351e-03,-9.794884665584524086e+00
1.433731182623121207e-03,-1.229597718617365942e-02,-9.796215399723639194e+00
-4.252776736313851683e-03,-1.586565557117434327e-02,-9.793670855776049677e+00
-1.198802080110978989e-02,-2.929149376216540809e-03,-9.791417565940623291e+00
1.328713764277996735e-02,4.529522396307494436e-04,-9.807208051784909841e+00
9.095355180126590139e-03,3.889916125472796422e-03,-9.786359784390899819e+00
4.929447508961203039e-03,2.479939906174608022e-03,-9.797608707923840754e+00
1.092267467706556708e-03,4.213918455115866525e-03,-9.791805131578533050e+00
2.897156291397053312e-03,-2.373434943988127904e-04,-9.778671698185929628e+00
4.604698533700104027e-03,-3.599267943801453401e-03,-9.786463909143790829e+00
4.041520702211692274e-03,2.838546364651466959e-04,-9.792437346402492082e+00
-7.793351324670412528e-03,-6.431769221290024006e-03,-9.784638426573170733e+00
7.114646663041307266e-03,1.692757883012236276e-03,-9.802957172864568136e+00
-8.892341869409927518e-03,8.473096011328180854e-03,-9.785862381188298542e+00
1.086788128961799671e-04,-7.785682268746750914e-03,-9.794358934312008103e+00
2.359683498624503238e-03,-9.366726453730028074e-03,-9.784582622520598960e+00
6.005784918822290944e-03,-8.060025180530076090e-04,-9.788785234299536953e+00
-1.200601947541247473e-02,-4.948532128884153627e-03,-9.804190995483528681e+00
1.221722836985296348e-03,2.570989955976000704e-03,-9.794904855656568543e+00
1.287026436616687218e-02,-1.874616219520075164e-02,-9.791804340861949285e+00
4.871468309790742864e-03,-9.544013416359881097e-03,-9.794857569846563194e+00
8.130385169921152191e-03,9.570841965906967327e-03,-9.785787734652874548e+00
1.618486678777876497e-03,8.555495148056677795e-03,-9.802092527986760118e+00
-5.895066965512218158e-04,1.486467210481553407e-03,-9.786069435737690725e+00
1.501058893669202261e-02,-3.429154009489095503e-03,-9.791767917690464174e+00
1.636971022383010635e-02,-7.400308561945686571e-03,-9.794170340689769105e+00
4.257605529483929167e-03,1.495086541725471237e-02,-9.795620988976814658e+00
-3.193082219347964136e-05,-7.433629652020958684e-03,-9.793437354019369323e+00
-1.035801964864980704e-02,3.304702392891939976e-03,-9.782804740026177726e+00
1.186363869185952380e-02,8.710228496746636861e-04,-9.787681339923361534e+00
-3.410549244799242208e-03,3.767206731286106697e-03,-9.798533158365330564e+00
-4.175477703060366140e-04,3.032476425414102044e-03,-9.787172575873650970e+00
6.396494034816805219e-04,-7.665325275798965873e-03,-9.785668791186473925e+00
-2.990441464531504341e-04,6.020468336209941138e-03,-9.786792691468315653e+00
-8.363787943152407867e-04,-6.557269751776591618e-03,-9.785482861645256492e+00
-1.268877383033203618e-02,-1.271056250833687423e-02,-9.792779695713306864e+00
1.350808487450946577e-03,4.888387215100570282e-03,-9.795391949033048107e+00
-1.514704665107464467e-02,-3.731861032442746352e-04,-9.795278855711114119e+00
2.277274444197896486e-03,6.224783963146003282e-03,-9.781921136861820187e+00
-1.500953980274427613e-02,-4.882685336666460658e-03,-9.800814693182708481e+00
-2.485187455648897766e-03,-3.316209074494986218e-03,-9.798904393517990030e+00
-7.945562162932271605e-03,-3.232587231522217504e-03,-9.802723852045026831e+00
-2.844319185383665551e-03,-8.472422977468740349e-04,-9.794526676179398095e+00
-6.518266471210173302e-03,2.410583904015264553e-03,-9.799297511978156905e+00
3.821031915679773665e-03,4.764147229182206025e-03,-9.773687782724378437e+00
4.862246668435249615e-03,-7.767005994870734842e-03,-9.791877719545780678e+00
-9.589716531647173850e-04,-1.290519374746617372e-03,-9.800190574380128083e+00
-8.593367710121617084e-03,-3.112348970972443965e-03,-9.802589299954151514e+00
3.212785163755436414e-03,9.621837297589558302e-03,-9.782828414706433051e+00
1.674951531101103244e-03,-3.967095964674575807e-03,-9.802779995915027911e+00
2.004707789960163793e-03,1.432720452544815511e-02,-9.795728885927646346e+00
-9.834756197704696418e-03,-1.225737902196393728e-03,-9.808381754029449340e+00
-3.691780481209656732e-03,-9.137369571374344759e-03,-9.792135121582878909e+00
-1.005887518077913136e-02,-4.184461825116253531e-03,-9.795247986769542337e+00
-6.488443992231650997e-03,-1.672055589390954427e-03,-9.798993236830380482e+00
-1.270458059771145502e-02,7.544548465935316250e-03,-9.794675848338494362e+00
-6.753183349238265319e-03,-9.412442816023911668e-03,-9.789483333632933437e+00
3.066278913696666910e-03,-1.192586754056033579e-02,-9.803186723551618798e+00
1.525749027641649415e-02,1.246749240051758106e-03,-9.793221972144971588e+00
3.483335856791152513e-03,2.380551674390011564e-03,-9.791576324809479814e+00
4.555135290555055688e-04,-2.530369729886604475e-04,-9.792077945079606494e+00
-7.370677568935856717e-03,4.641322541304582563e-03,-9.789939928642340305e+00
1.958333119996851033e-03,3.350023754209784620e-03,-9.789374712924866273e+00
2.116982505861495813e-03,-1.444438087568559537e-03,-9.795805949661318124e+00
-3.996105957994216737e-03,-1.082490397353975432e-02,-9.794448136383309134e+00
-1.065583241609241970e-02,5.570641365695445588e-03,-9.795660797708208634e+00
-2.226415268059689281e-03,-1.076042533946986162e-03,-9.795881061971334347e+00
-4.532458849908073233e-03,1.000008937340813100e-02,-9.790736260659990364e+00
-8.596617242174984792e-05,8.220475912643030250e-03,-9.782321376186436268e+00
2.773846849992366373e-03,3.241989447299906124e-03,-9.790204595410379795e+00
4.450382271105710920e-03,-6.518277898273344868e-03,-9.793855418445600591e+00
1.372544662662377596e-02,-1.637467739958042628e-03,-9.787815663060220217e+00
-3.041368861307637214e-03,-8.181686766043633555e-03,-9.796704355527074526e+00
3.549201393611469465e-03,3.917261662180664475e-03,-9.803934248363487924e+00
2.298968742555452648e-03,-9.739799513233378045e-03,-9.801143767579864274e+00
-1.047330071260246581e-03,-5.629809408229049898e-03,-9.782019460161670565e+00
1.305399019444409463e-03,-3.302732367142654016e-03,-9.798608973781403719e+00
2.664823897549165391e-03,-5.878875798636156759e-03,-9.793686060121206793e+00
1.016647814019605925e-02,-1.100877892700121742e-02,-9.797737705020775678e+00
-2.218219415062020784e-03,3.442628872634985633e-03,-9.793829869009178068e+00
7.262906251386642368e-04,-5.377796373275569967e-03,-9.798097013376230180e+00
1.520950062769441113e-02,2.314444113824830774e-03,-9.806562829058030673e+00
9.650255778472598828e-03,-3.857244421484702299e-03,-9.793035764816595545e+00
-4.959616922652809647e-04,-4.025420467337747533e-03,-9.797321524874799792e+00
2.886246581980473225e-03,2.497619947206564453e-03,-9.792913768499648342e+00
-3.011268969541101587e-03,-1.403483946108095154e-02,-9.800306435561340734e+00
4.903307353854036328e-03,-5.796521651601558092e-03,-9.794210670761456683e+00
3.657858690311399565e-03,7.870577518753399740e-03,-9.803000859087447338e+00
-2.706825298592028216e-03,-1.663543709643729163e-02,-9.779345052442824482e+00
-9.973679832393942887e-03,2.334442462127432616e-03,-9.794139953902872620e+00
1.126807394024743891e-03,1.260463524007762173e-03,-9.801683934346424820e+00
-1.585237913111372729e-03,9.615345563855343461e-03,-9.797163511164153959e+00
-8.969158807954449517e-03,1.450497091071206203e-02,-9.786094261379712833e+00
-6.210039536432278469e-03,-9.718343184598139672e-03,-9.801631130840524619e+00
1.482023855433792876e-03,3.373249718561754408e-03,-9.790701471709834181e+00
-2.884868644492115559e-04,8.883721897005767212e-03,-9.798207637194909836e+00
1.170057198530357126e-02,4.285109155682684245e-03,-9.798799453627625056e+00
2.416789350526151858e-03,9.224193748168638043e-04,-9.798507911538241189e+00
-3.394192282907403536e-03,-1.096364012535890574e-03,-9.792797178074607700e+00
-2.352610261593691358e-03,1.960770315642414250e-03,-9.789769891327251727e+00
2.101746882552142735e-03,-1.221639235036954020e-02,-9.790796057585593459e+00
-1.117334598239004334e-03,5.647917073226147930e-04,-9.789340153564671354e+00
-4.058061040670525935e-03,-7.321491472371437388e-03,-9.788769963292976328e+00
-7.297679048997447217e-03,-3.072507822975260351e-03,-9.806794168017175295e+00
-6.424045162648553235e-03,3.445970182534691811e-03,-9.785326905685806764e+00
-1.242402150810356046e-03,-1.041641282896143845e-03,-9.798511245995532803e+00
-4.901591944091824964e-03,-5.859267106291401496e-03,-9.785987984106194304e+00
2.455521541289122037e-03,-5.835434937133198753e-03,-9.797154821455800189e+00
-3.885620374105195392e-03,1.577451521691032501e-03,-9.802975583142867322e+00
7.272995294681134509e-03,-1.776290380628603102e-02,-9.788062253290526371e+00
-2.958188357939415137e-03,-3.553923468825647206e-03,-9.808517316881328441e+00
3.774882519323434320e-03,1.036125114817149431e-04,-9.795060850373971562e+00
5.115731048428107108e-03,-3.647567224349746243e-03,-9.800212652764795251e+00
4.594174232427407096e-04,-6.167054571073814911e-03,-9.795876180097831565e+00
6.783961707517210862e-04,-6.526113325922937129e-03,-9.794979797277546751e+00
-1.698379762261936418e-02,7.452008331956128800e-04,-9.787108245884144964e+00
5.291007280041542605e-04,-2.402729037473282005e-03,-9.789298832271670747e+00
-2.203742591037192566e-03,5.034287655109937788e-04,-9.804060303837088597e+00
-4.487238928049802969e-03,3.075598721895149261e-03,-9.787753279602705803e+00
2.536094701237832905e-04,-1.096391515569381317e-02,-9.792146707991362220e+00
3.205796421399119064e-03,2.412630858092513954e-03,-9.798226198267867559e+00
-2.028318920397615202e-03,5.611211803734754595e-03,-9.788037330852514373e+00
1.110930428795619228e-02,4.374496707003252237e-03,-9.782467587171693069e+00
-7.049564932315873292e-03,4.767106332248401655e-03,-9.798930911057354365e+00
5.892620580567848459e-03,-3.804726227086494168e-03,-9.801052149308036476e+00
-7.221562003358070712e-03,-1.804781182322803433e-03,-9.779403872851236912e+00
1.229570212028545471e-03,-4.089721923261176867e-03,-9.795840431686059446e+00
-9.036933581572983163e-04,-1.922270757038848071e-03,-9.793027303994373156e+00
-5.143278269223194345e-03,3.777805440253551028e-03,-9.787405669778964423e+00
-1.311679614497430688e-02,-5.404169553954455557e-03,-9.799163152467993854e+00
-5.515621089976294709e-03,-6.453750876767613658e-03,-9.781196939041082672e+00
-7.378441908393995781e-03,-1.877434279144868986e-03,-9.787748484055809328e+00
2.831948717077923880e-04,-1.616114394002748055e-03,-9.792245131982628692e+00
-2.677601175021882343e-03,-1.348542657680473073e-02,-9.791842304619569504e+00
1.071107653764415829e-03,-6.269360140151837915e-03,-9.789602115924576964e+00
6.500837161901307226e-03,-1.213893541256738824e-02,-9.795514153824989023e+00
2.939760477894559892e-03,8.482014132448057256e-03,-9.784755605239924492e+00
3.853003860961609107e-03,9.966576686481275898e-03,-9.790225444782592490e+00
8.963861394115405293e-03,-8.833470694059408421e-03,-9.792520221568977945e+00
-1.430435614073998114e-02,-5.939233111897361528e-03,-9.784092501501328698e+00
6.108752350951989103e-03,-1.060515459558307623e-02,-9.785719255060680410e+00
-4.515418092417574996e-04,-7.797619403336134014e-03,-9.787204330857809609e+00
-5.435060806787473872e-03,6.036301811816529791e-04,-9.798549077541043317e+00
5.241180762553844519e-03,6.051609641596373580e-03,-9.795246249181726483e+00
1.676274378620103101e-03,-1.640656025964580544e-02,-9.798107947017602015e+00
3.943286680424482223e-03,-9.667685741216209151e-04,-9.794908643193014797e+00
-5.731725797768630684e-03,-1.560511966192994638e-03,-9.780550950794886234e+00
5.283156026896946265e-03,-4.989838854899697820e-03,-9.793203148729142882e+00
2.014154285541385012e-04,-2.889177054031651266e-03,-9.795052773860822626e+00
-1.961704659933036568e-02,1.293521152840543557e-03,-9.778856846388029211e+00
-2.519431449239404285e-03,6.663827160142648046e-03,-9.778763835226097711e+00
-5.265596224661561048e-04,-8.234111295916363149e-03,-9.806298344079918294e+00
-9.605697279772238209e-03,9.747263205632652333e-03,-9.800345446537830796e+00
-3.034576708928591812e-03,-4.881380642908240801e-03,-9.790885800280900497e+00
-1.006138595807617997e-02,2.205409107275384945e-03,-9.780522250110458060e+00
-4.470989688553240332e-04,-3.855372642342941997e-04,-9.796619536260767092e+00
-1.353565972640976937e-02,-5.732458152804325788e-03,-9.784049256831440999e+00
-1.298627645930519603e-02,-5.557347557182529957e-03,-9.786398983659259088e+00
3.943123934713462647e-03,2.159107727095471024e-04,-9.778445685925118980e+00
4.499126999299737570e-03,2.692862324464188883e-03,-9.791530521410606980e+00
-5.477124958355611764e-03,4.759929115513857577e-03,-9.793442226385817406e+00
3.358937815374527869e-04,1.145874726573167801e-03,-9.804179554569874000e+00
2.947239939030004731e-03,3.782329113478655365e-03,-9.786972938629787677e+00
-3.565573548451424300e-03,1.454054229713848227e-02,-9.789706489996641281e+00
-1.259406722390465048e-02,-1.199902583038350151e-02,-9.788258778951929528e+00
-7.188065948090382670e-03,-3.363159669310025919e-03,-9.787342352771716492e+00
2.482186808946951900e-03,-1.386798204167453627e-02,-9.790686255574268415e+00
1.351814561656048894e-02,2.325473272939620768e-03,-9.796380192334092740e+00
1.391434995975384531e-02,4.730687876580659534e-03,-9.789579400522109509e+00
1.884537038797421587e-03,-2.133033570016487027e-04,-9.798159940398095458e+00
5.559428487042517367e-03,-6.446996732170743065e-04,-9.800561891501210710e+00
2.557990853834000034e-03,-3.930148657336192050e-03,-9.789712471620726220e+00
4.196263312077585551e-03,5.944138140329766756e-03,-9.797116958350173377e+00
2.572416770420212113e-03,1.327276444149363835e-03,-9.801261165510144480e+00
1.109240021194353790e-02,5.260261594864217363e-03,-9.796000424369376347e+00
2.878162310391688562e-03,-3.420276534655080497e-03,-9.792488308639914152e+00
-9.988107725942018712e-04,6.304500856288862941e-03,-9.780729140999460114e+00
7.624760177398821719e-03,2.572833972830339787e-03,-9.792737148389672797e+00
2.043659244235935483e-03,-2.601284833067537411e-03,-9.803358409801580464e+00
6.201056221253146809e-03,4.497507876239197067e-04,-9.791013163167294309e+00
-3.280473445692573455e-03,-6.561958451968264577e-03,-9.801837836307255358e+00
7.652480047064342573e-03,2.242652966469513287e-03,-9.792926014722745265e+00
6.446438482675032403e-03,-1.398592047665581789e-02,-9.798897765247025049e+00
-1.552940962211325207e-03,1.720908327048216576e-03,-9.792176229100817864e+00
7.001888716895374176e-03,8.123955144557314448e-03,-9.784901914098766085e+00
-4.558806878037622093e-03,2.418957805898798875e-03,-9.791794050469970756e+00
4.361126840547839556e-03,4.695898111945352726e-03,-9.785613103826461767e+00
3.552811196065861800e-03,1.831062162082816840e-03,-9.782615264055865012e+00
-5.694346840034305440e-03,2.450630006207631714e-03,-9.778901254607797355e+00
8.725736513829610366e-03,3.940936035794872193e-03,-9.779250623084610794e+00
1.959071820112189694e-03,4.570813499457500491e-03,-9.795295099264684779e+00
-3.214254415966530474e-03,-4.400677287489712132e-03,-9.795145332341956390e+00
-4.217553005948899980e-03,-4.018547874886157362e-03,-9.790656849028971820e+00
-2.286372736702691096e-03,-8.629475562593419066e-03,-9.793783069344433656e+00
8.564806313905430624e-03,8.173668688963534046e-03,-9.792734235416990174e+00
4.663654920409541701e-03,-1.199566491104258475e-02,-9.791121369369792049e+00
-8.196690200241130500e-03,-6.411213501639313229e-03,-9.803956448491344844e+00
3.850814507449606245e-04,9.158231262188934810e-03,-9.792854286292158150e+00
-4.294934809694858288e-03,-7.489952035618523997e-03,-9.807251867913533872e+00
-4.590709219706205595e-03,-8.588426662725939797e-03,-9.793241363586117743e+00
1.011869314046683239e-02,-9.948900199293342350e-03,-9.795918746540490218e+00
3.460464727137064437e-03,6.761155384456089823e-03,-9.792811857038499213e+00
5.367909387005469039e-03,-2.174306826161966424e-02,-9.794236987427444419e+00
-7.980069128847142382e-03,-4.255725074575673894e-03,-9.789730387157288050e+00
-2.594581808662314078e-03,2.228812170158924865e-03,-9.782100405041751046e+00
3.883293540045474387e-03,1.072018652215867137e-03,-9.783041965674492246e+00
7.987888671171707033e-03,-8.706175526274180509e-03,-9.796578707411404352e+00
6.453206623352328482e-03,5.572593791690054477e-03,-9.790110050245088402e+00
8.637509119798844268e-03,-2.379391110681855839e-03,-9.795611351706615011e+00
8.645239909183420265e-03,7.052283678072769277e-03,-9.786938985090671395e+00
1.621495240635121128e-03,1.058068161990223868e-04,-9.798768616664986553e+00
3.483803159449604721e-03,5.892989602701791639e-03,-9.798537943383729854e+00
-1.168550238107617968e-02,-3.994285307349075206e-03,-9.788408291765927416e+00
3.175343619747238947e-03,-3.268060622064523739e-03,-9.797236523201123148e+00
1.356151076016376758e-02,2.297410554768640825e-02,-9.794317293267445379e+00
-8.660137100440702673e-03,3.662790493181264026e-03,-9.794449088784409341e+00
-2.883499775016325076e-04,-5.365684184220362828e-03,-9.792837799192655623e+00
-1.521095326577080135e-03,4.113367155332003922e-03,-9.784135611813097100e+00
-2.119207251472755068e-03,3.994810799073975072e-03,-9.792876663752261734e+00
1.443367089191676875e-02,-5.031873842712412948e-03,-9.795824839640360437e+00
-1.359579383480101936e-05,-1.124195157139583389e-03,-9.805576075357617327e+00
4.731275103144393264e-03,-3.068073254029709748e-03,-9.796572528896312804e+00
-7.772799539809844551e-04,-9.019972923404884907e-03,-9.786199204493270187e+00
6.952241560095195547e-03,1.190401679054014887e-02,-9.799236513832994433e+00
2.560917022041640442e-03,-6.206623411824476952e-03,-9.788985411056085439e+00
-4.333258991122745062e-03,5.798514425789026705e-03,-9.774388497709638912e+00
9.245270495105068799e-05,6.136316519115877187e-03,-9.780108552342920092e+00
4.108158441669029250e-03,2.726977944136527426e-03,-9.806495147039717253e+00
7.417864828130579444e-03,-1.340319775253053652e-02,-9.797733808352528939e+00
5.293046269067719529e-03,-1.164310683676116369e-03,-9.794925609515193088e+00
1.748544037959880518e-02,-4.131498828906668939e-03,-9.787803004125722239e+00
3.863276373063582320e-03,-1.481881745111184728e-02,-9.801753145273895740e+00
-1.464446441936907532e-02,-2.980497478412728191e-03,-9.790469763764969358e+00
-8.326725251601541783e-03,7.119725469338838118e-03,-9.799064386274595861e+00
1.356247746400398441e-02,2.398760607426678616e-03,-9.800909895447871278e+00
-3.553486946810712963e-03,-1.077055174401581397e-02,-9.800031656637965938e+00
1.089411258906127292e-02,3.023330108709728140e-03,-9.781151900910838748e+00
-3.714459159413757618e-03,-1.229214439501889224e-02,-9.797146890048143320e+00
4.260645712680200849e-03,1.200433236019402689e-02,-9.796406343800436289e+00
7.341636899841735321e-03,6.912827112891411357e-03,-9.791972724401995620e+00
1.014402327283784981e-02,-1.639622366736707970e-02,-9.791297681581619727e+00
-7.327048313211806385e-03,-2.182619049625444604e-03,-9.791654680583736337e+00
1.687210412015025364e-03,-8.636159702566793828e-03,-9.787496882456203195e+00
-7.171951429687365744e-04,-6.375497994456202216e-03,-9.795725277857796343e+00
1.005882547928491424e-02,5.465146716946269433e-03,-9.813250996156547501e+00
2.482813766175902617e-03,-5.935577099024542946e-03,-9.797736829495301336e+00
-1.295586052962885209e-03,2.318247613090223397e-03,-9.800541971069137048e+00
2.394517916121640441e-03,-1.045980341778880761e-03,-9.783164134054807448e+00
2.070061686659280427e-03,-1.098098990580809349e-02,-9.794771176844484728e+00
1.179196523282820958e-02,4.358017034168095924e-03,-9.797211569575294376e+00
7.573955174034181868e-04,-4.525218594179611017e-03,-9.790118978558648877e+00
9.831199301262992518e-03,-2.077673673095291242e-04,-9.794450487978403785e+00
-5.134851902104065231e-03,-6.832276279657720566e-03,-9.792279084961048596e+00
-1.629067415082075584e-03,-8.875359492239325888e-05,-9.795059671526630041e+00
2.351531179783286803e-03,-5.567203290445032343e-03,-9.793681986216965285e+00
-1.324661117397053214e-03,-7.069119496461979610e-03,-9.792557604203887323e+00
4.513079820102576696e-03,-3.495807139958853615e-03,-9.805968142873709326e+00
-2.606946432109479884e-03,-6.518029253937461607e-04,-9.797756361116629620e+00
1.133798295836448968e-03,-5.875195143266349028e-03,-9.777109982214360784e+00
-9.867622040229714897e-03,-3.032029427097580280e-03,-9.786521521055870920e+00
3.660855060177620017e-03,-1.917290878337509375e-03,-9.798414743459513687e+00
-1.456046508670119644e-02,4.831137857214314393e-03,-9.786966304248201354e+00
-1.283022600609602659e-02,-8.207357329797132506e-03,-9.797133754482372225e+00
3.275942066446849328e-03,6.948570099743575645e-03,-9.800827153430363481e+00
-5.412410118328232940e-03,-6.124460565839201856e-03,-9.796593358717656130e+00
-1.014396769591463347e-02,-1.020456611862326571e-02,-9.791414123288152638e+00
8.357488880792242683e-03,6.099408508326392871e-03,-9.801220267780179185e+00
2.085748504327042049e-03,3.825451054700624784e-03,-9.778084483309026353e+00
1.173780127490121200e-02,-3.740166456386672007e-03,-9.800782139160633122e+00
2.860786763637584301e-03,2.396095757664437262e-03,-9.797492817458699932e+00
1.630771473436088824e-04,9.602603101976740774e-03,-9.785745403743778326e+00
-3.134161621651644549e-03,-1.269083416205493003e-02,-9.799459558953675042e+00
-4.700762412184147747e-03,-4.499795594150040809e-03,-9.782646709798934026e+00
-1.406466469545022621e-02,5.422012464401591327e-03,-9.797836022383473065e+00
-4.785177856766946285e-03,1.413264692359685742e-02,-9.801282502611668335e+00
-1.122541912344306864e-02,1.604042386256287339e-03,-9.802916775465048360e+00
9.505896322133094295e-03,5.128401322570152326e-03,-9.789718879502675719e+00
1.343794009297498426e-02,4.656229704454465691e-03,-9.781129812767824561e+00
-1.253206337954790436e-03,2.940095925972289938e-03,-9.803943517198968394e+00
5.420995778735305907e-03,3.668916388880684529e-03,-9.800766601876153672e+00
2.107020951019562393e-03,2.008008726851859445e-05,-9.800941447755668889e+00
8.521678872611045466e-03,-1.172610000133572118e-02,-9.791571295392140328e+00
2.063892634276134549e-02,1.793947076957619693e-03,-9.786563661287217997e+00
9.479414917053816808e-03,-2.950486691455241582e-03,-9.789769660128150974e+00
-2.874417072170766096e-03,-2.457642630829490193e-02,-9.792967379480062462e+00
7.790450300619907419e-03,8.588318315748844772e-03,-9.790882453798083418e+00
-1.636749423054284589e-03,-6.369652524930027350e-03,-9.802087568346408375e+00
5.920457657108699548e-03,8.005783565898150211e-03,-9.791228873511732544e+00
-6.059557975316187325e-03,-2.255435623428345485e-03,-9.781026513496273722e+00
6.141909569859191386e-04,4.557031066826853528e-03,-9.786028452722540294e+00
2.249075528294228036e-04,1.468127529117628461e-03,-9.793900479488724997e+00
7.220203151238833430e-04,-1.247904497350440373e-02,-9.793428651366447468e+00
-1.162655839686094726e-02,-7.739404416485516289e-03,-9.789278173124785098e+00
-4.879496728347421965e-03,-2.429096211305761463e-03,-9.795594035052516801e+00
-6.283534741395297059e-03,5.031329266274428471e-04,-9.796179419907256047e+00
4.569470879684098090e-03,-5.729696035397123435e-04,-9.796939864097636175e+00
2.796004162243335891e-03,5.279955159505785554e-03,-9.794072592811859934e+00
-1.236214715265611559e-02,-7.791293125682661677e-03,-9.794434936405458814e+00
9.105735446352418785e-03,-2.450192200246465151e-03,-9.795665063004600270e+00
5.850538170060584284e-03,4.850233284857269518e-03,-9.802750464906671013e+00
-4.251230960780416970e-03,-1.615592735696387170e-03,-9.789134805884835089e+00
-7.150962787196677058e-04,-3.784455855327566089e-03,-9.789743610821920683e+00
-7.861420988767149577e-04,8.524558406707485186e-03,-9.785896773479034749e+00
5.403019337842789559e-03,5.122967547131748733e-03,-9.784848673697480237e+00
-7.928027398136026568e-03,8.564073390620636703e-03,-9.796765134242850337e+00
1.104949071401822337e-02,-5.191547686885368378e-03,-9.801172615813637634e+00
-1.227601527568977476e-03,5.755967374978378064e-03,-9.794434144232642581e+00
-5.816008532599076936e-03,-9.363923395927397546e-04,-9.793150489625448429e+00
4.327864415129484884e-04,4.401824534543771587e-03,-9.803529015807784575e+00
4.052331045719449222e-03,-1.291061748433748775e-02,-9.785903617454572156e+00
-2.949032023605460337e-03,-2.241244611151144758e-03,-9.803118235543022863e+00
1.095832775798574396e-02,-3.598268879836201244e-03,-9.789265700459310438e+00
6.178913474387099335e-03,-1.291628622543418425e-02,-9.773599586977903542e+00
-1.153209805965217140e-02,-1.429539801124839497e-03,-9.791739079197117945e+00
6.066888461368079473e-04,8.356206704961042370e-03,-9.788597022801944547e+00
-6.926797617636914865e-03,-1.636261191342440772e-03,-9.799590161539930122e+00
3.224738291528497086e-03,7.432261584356298495e-03,-9.786987287305354499e+00
-2.186368792350067668e-03,4.494125543348877899e-03,-9.787890046490428375e+00
-2.378419545196249364e-03,-7.468440247089781596e-03,-9.787163587746327664e+00
2.312142249712204143e-03,3.152901687838727436e-03,-9.788371493901999898e+00
-4.223328848846310234e-03,-4.342195153453840863e-03,-9.791191291342444813e+00
1.720945041142897189e-02,-3.143006707689707888e-03,-9.805583902501991744e+00
-4.239005094450799295e-03,-6.732356796700214585e-03,-9.792120144109729196e+00
-1.705697118048047191e-03,1.726246355653517778e-02,-9.792892535391063191e+00
1.804529252547889314e-03,-1.926803986715533001e-03,-9.792344671986967342e+00
3.588188365661291145e-03,2.656466027090773323e-03,-9.790011512542751149e+00
1.666372852962721236e-03,7.664893757080851883e-03,-9.795163853213095351e+00
1.011984231326279633e-02,2.660260410586338595e-04,-9.787521310837734134e+00
4.702081265586106375e-03,-8.984103330356955561e-03,-9.797433524450903874e+00
-2.934935119369633163e-03,-1.020120769302441943e-02,-9.799780356687350036e+00
2.004574244788398605e-03,4.827489643153718563e-03,-9.803390715179094883e+00
4.729026539523683431e-03,-7.500532527442274394e-04,-9.791153467332767590e+00
-4.664807704608456632e-03,6.920472408949670563e-03,-9.784402001303359242e+00
-7.078340271905122355e-03,1.494228082244850042e-03,-9.793730775704268865e+00
1.258644638396119730e-02,-6.741301184199298066e-03,-9.780195304561573266e+00
-1.370405772097029427e-02,4.068340453218942561e-04,-9.787330070172698626e+00
-7.444173271182688394e-03,3.236782289934377402e-03,-9.785029608585180227e+00
-2.822329464259986948e-03,2.837056234940801315e-03,-9.783988896269084634e+00
-6.233743131518532099e-03,1.607351524596839195e-03,-9.800632144445835081e+00
-2.327287220026777112e-03,-5.778348706270062390e-03,-9.798204859246935072e+00
-9.129238805749182242e-03,-4.642747542284785672e-03,-9.793357346636486938e+00
1.743573479936388155e-03,-7.089607491606671544e-03,-9.809195009342561278e+00
5.365357019664101362e-03,-3.625709528570297303e-03,-9.793462736966782600e+00
8.810796975932400077e-03,-4.264683154252869174e-03,-9.794753961969817624e+00
-9.829058235106949426e-03,-1.158707990552824800e-02,-9.804412541655583624e+00
-6.403579323429126752e-03,9.386376371660589552e-03,-9.787894249712749684e+00
-1.909331579669693545e-03,-1.458895968525464326e-02,-9.787794254856553522e+00
1.769388231528894575e-03,-1.812535005335577307e-02,-9.792949809858560783e+00
-5.384744670147264406e-03,-1.579410313054859655e-04,-9.789783663886092668e+00
-2.354639354387757372e-03,-5.941738802716041434e-03,-9.812799752231713413e+00
-1.831149253030125296e-03,5.226297747208971320e-03,-9.789625910768579686e+00
1.111243465263949889e-02,9.582717043534671672e-03,-9.790743992582473965e+00
-9.889378826965415301e-03,-1.228621820035674488e-02,-9.784903060250812246e+00
3.023259002066542179e-03,-9.928457824040996804e-03,-9.795915398567638377e+00
6.782915638424478035e-04,1.002470151068906787e-02,-9.787426164784807980e+00
-7.211012296699441208e-03,1.085552527698580624e-03,-9.783851374975013115e+00
-7.636556700918521214e-03,1.673945685887289923e-03,-9.790222051330401243e+00
-3.701245974966600543e-04,9.031331194958457011e-04,-9.794984871768381396e+00
-1.039017483622081510e-02,-6.296653193669139899e-03,-9.799201548999549871e+00
2.881561488257845111e-03,4.630191201419527405e-03,-9.792646405486562955e+00
-8.242409539264441282e-03,2.758028177295764050e-03,-9.790088501491098327e+00
2.255538250877035366e-03,-6.306268545031278212e-03,-9.790210745785831392e+00
-2.950042399592518738e-03,-9.770307199882094160e-03,-9.801615796571034878e+00
3.000827253549020069e-03,3.899081333594274154e-03,-9.794297280176746057e+00
-6.172007366052927740e-03,-4.045026634705238197e-03,-9.803099960835709226e+00
2.566092871878152427e-03,6.656602701907211352e-03,-9.806936870500079451e+00
-4.163995150284991245e-03,-1.434965991389662229e-02,-9.793358837211291856e+00
-9.903980218147431271e-04,3.425053132639264974e-03,-9.797326068750537686e+00
1.176256030800525501e-02,-1.369978412522384302e-02,-9.784989799231817997e+00
1.423824716364090193e-02,-5.335134478479303111e-03,-9.797364624282986156e+00
9.740487347672821886e-03,-8.133006585874180683e-03,-9.795511241671791325e+00
4.192030995858232051e-03,-7.048864094464994158e-03,-9.802382269649376312e+00
1.253525119014729794e-02,-8.853045707145309248e-04,-9.793864028202770911e+00
-6.328294977755967270e-03,-8.659058705583456972e-03,-9.793792908304064682e+00
7.375360040367673689e-03,-9.223739928793737997e-03,-9.799975188441903740e+00
3.234112524530398641e-03,-6.922968032986311429e-03,-9.795664441323033600e+00
-2.972620682661208848e-03,-2.231674122616286379e-03,-9.805197172882268219e+00
-1.029511393141959623e-03,-8.910501669922454458e-04,-9.803771540449746524e+00
-3.793787461123990408e-03,8.357807453010013266e-03,-9.796678456193367523e+00
9.181341829276491858e-04,3.583520706673471237e-03,-9.799126806889356445e+00
3.151126765894789183e-03,4.292345619212440365e-03,-9.801093107541873906e+00
5.338411301731984604e-04,6.456836488178499013e-03,-9.806259101718751481e+00
-1.006276795636924142e-03,-2.847361848911810281e-03,-9.801222724108880513e+00
9.629147776400446331e-04,-7.863680651777088526e-03,-9.797337910303163255e+00
8.905075294932203803e-03,1.502151761183512235e-03,-9.793771833063839694e+00
7.871947120408883942e-05,-9.838694068007268478e-03,-9.797746025810907256e+00
-4.367978363427446782e-04,-6.199066442037616184e-03,-9.796764219136157692e+00
-6.063618776065085245e-03,4.695137892999846213e-03,-9.804297489114620845e+00
-7.666772736256575321e-03,-9.594648279081520806e-03,-9.799788993445135432e+00
4.518842314832391405e-03,8.604494804108000095e-04,-9.798810528989818636e+00
1.398013103743308248e-02,-3.248857117730553998e-03,-9.799467965075431053e+00
3.087099056950813689e-03,4.991528587497493646e-03,-9.790790453898678081e+00
7.668323635257269857e-03,2.363861595954588283e-03,-9.782340118695783460e+00
-2.785780853785347830e-03,8.149377015640236685e-03,-9.791681598118891827e+00
8.313218662030238612e-03,-9.311386223872213791e-03,-9.802692262375650500e+00
7.364235333864397291e-03,-3.337794181370272797e-03,-9.796756542871706941e+00
1.013541743926148209e-02,-2.388089183373465207e-03,-9.797380847200745535e+00
5.304896701987526185e-03,-5.028629981061403728e-03,-9.815688064041049543e+00
1.114035754366669850e-02,3.812935301860593748e-03,-9.788803857815508991e+00
-8.760243613606219677e-04,1.130855188494316911e-02,-9.806487228652159160e+00
1.379345348554648389e-02,-2.089432351449092059e-03,-9.806447391625102483e+00
3.253494933545572447e-03,1.411148434656044320e-03,-9.792701789761002473e+00
-1.863023950081450037e-03,4.048548891586712349e-03,-9.795395884696615596e+00
4.542249567357184610e-03,-2.966614943407250553e-03,-9.790900322708356640e+00
-1.139953514632572424e-03,7.435051382417498522e-04,-9.808686525146343982e+00
1.373469556048873171e-02,-1.070983533164658261e-02,-9.799142139006431051e+00
-8.235759273480566800e-03,-2.207631814325562106e-03,-9.788444262809159468e+00
-1.294582286399450664e-03,-4.366415430703469644e-03,-9.789631882460508194e+00
5.040958638198909198e-04,-5.563337920861896949e-03,-9.797288742673480044e+00
-1.401026724488582719e-03,1.221982138566976833e-03,-9.798015066995565903e+00
-1.080591580893187388e-02,1.283075699374878380e-03,-9.777285766393180921e+00
1.749602462895103383e-03,-9.587794316424532587e-03,-9.790744738852479756e+00
1.029377376513028811e-02,-1.479626409584902484e-02,-9.789370566278975616e+00
-5.213900743750286663e-03,-5.970571492480878165e-03,-9.799744022522551390e+00
-2.994691597127539535e-03,-4.432869988148250597e-03,-9.787578344315932100e+00
8.297256737125103393e-03,7.229106731579424544e-03,-9.790135300067314361e+00
5.923621134065438013e-03,1.859023266447150380e-03,-9.782522758382349082e+00
-3.832258853501769539e-03,-4.867468782411139144e-03,-9.801611237864966242e+00
-6.195846797045855177e-03,7.767245743809640494e-03,-9.790918114223945423e+00
-7.961796100387377381e-03,6.993033715256287419e-03,-9.799208117300180376e+00
-3.847489624744369029e-03,7.675368122344800210e-03,-9.781799488988379920e+00
-5.369138718072300268e-03,-9.782680335139136690e-04,-9.792231052557562876e+00
1.074572827117024378e-03,4.527661188236052278e-03,-9.797205485545553927e+00
3.511980485963584961e-03,4.880047011162888526e-03,-9.801597716342531186e+00
-1.141404292343088265e-03,2.166712526772676152e-03,-9.801622196220129979e+00
-1.962117979384844692e-03,-4.930855619347596260e-03,-9.797601248478509106e+00
1.005173100357353681e-02,6.334715398207687621e-03,-9.791413902706555206e+00
6.156469839697425658e-03,-6.485548196055990720e-03,-9.783696506464147902e+00
-7.865462591187693023e-06,-1.068383564599346969e-02,-9.799570175361161262e+00
3.860530061228096416e-03,-7.413309003602594656e-03,-9.782044544640243089e+00
6.540931445498427040e-03,1.070370912657762907e-03,-9.776741592007295978e+00
-5.505942933760845336e-03,-5.997103007284481334e-03,-9.791269851162121896e+00
-4.510651039377029485e-03,2.451084626223111636e-03,-9.795781067647940432e+00
6.000245857136213105e-03,-3.474801938063302835e-03,-9.801996890726780265e+00
2.229525055882216684e-05,4.609897639104914777e-03,-9.812348398299715058e+00
7.172479941558142919e-03,-9.555936306475389889e-04,-9.797968644691266604e+00
2.327635670904191784e-03,6.529987286088263874e-04,-9.792379564540013348e+00
1.281190281788486054e-02,-1.477879071858854108e-02,-9.799820672532000287e+00
6.170460741033788159e-03,8.058991342530227864e-03,-9.794102584233153053e+00
-8.619313493724111916e-03,-1.068235158384538488e-02,-9.794977282242324890e+00
-6.719115965324434434e-03,-1.881745849891551525e-02,-9.791721978267291959e+00
9.120444340879232514e-04,-4.487437258531006435e-04,-9.783656944131688959e+00
4.490875506754411078e-03,-2.060183523046515974e-03,-9.796609487421759965e+00
-2.470370540727358667e-03,-1.091493864020126603e-02,-9.785427529597964025e+00
2.029260866240340487e-03,-8.365093252380037536e-03,-9.794467054949125284e+00
2.846281608646086207e-03,1.113766244396102723e-02,-9.783644582451019645e+00
1.011980753482664107e-02,1.060812740095962679e-02,-9.799670751387585810e+00
-2.851544486807804698e-03,-1.044935561370292747e-02,-9.796010158443072768e+00
3.419499588660464447e-03,1.273809368685052158e-02,-9.794388758777229143e+00
1.752962498782157340e-03,-1.217789165263790004e-03,-9.807748757376911541e+00
5.929623017774160801e-03,-6.025286182321832468e-03,-9.779221239173098823e+00
1.009484016809407587e-02,-2.972953193949036919e-03,-9.786574682855322393e+00
-5.283067083707711567e-03,-4.466641834670713983e-03,-9.781100193330038550e+00
3.048334871866828066e-03,-1.315487086487218509e-02,-9.796431880818934346e+00
1.082216491880122862e-04,2.826462708714005522e-03,-9.808762573951474550e+00
-8.295401192636352172e-03,3.680837382715157046e-04,-9.807829164472741112e+00
-6.952309628393515441e-03,-7.343650988023918934e-03,-9.795151286475435981e+00
-7.045545282340629455e-03,-2.556355740941985456e-03,-9.803848542091964546e+00
4.975197841175649748e-03,-1.034919335208576117e-02,-9.790056291774067887e+00
-8.949313567086824087e-03,-9.952760290577690114e-04,-9.792328801774802471e+00
-2.730619472019211146e-03,2.038476935159282480e-03,-9.793139212986682551e+00
-3.499538780722289289e-03,3.812169303251797172e-04,-9.796036217713469441e+00
2.231376842355058815e-02,-1.461108465888722070e-02,-9.790679094181841791e+00
9.952534694274339701e-04,-8.502460075291884585e-04,-9.798962016139723730e+00
1.318104186984269711e-03,-3.371286797747214022e-03,-9.790400015768994990e+00
9.014757693197988572e-03,-2.082109209506372710e-03,-9.798178509963813454e+00
-1.190339075388251351e-02,7.394134737134825525e-03,-9.791669753187765224e+00
1.829296580967103693e-04,-3.813762876767462506e-03,-9.799030919719058375e+00
-3.277278770314821267e-03,1.154627856410482892e-02,-9.810914728034296317e+00
1.905022695211909230e-03,-7.103041557893506608e-03,-9.791938562094731680e+00
3.899600542755963899e-03,-6.638856422984871358e-03,-9.796584290643433945e+00
7.509530967034524877e-03,-1.119141932790354045e-02,-9.789651995683401609e+00
-9.953549453267856312e-03,-1.681881726599204763e-02,-9.787590210765671372e+00
-6.280218393710697462e-03,-2.143916763730713271e-03,-9.794941208884226924e+00
5.516944666324379541e-03,5.893775042106035207e-03,-9.801801445649127587e+00
4.957475955281950147e-03,4.672583349781420092e-03,-9.800812215060332733e+00
-9.706238114596744048e-04,-6.262718725607387127e-03,-9.798801782188984788e+00
-3.390147516490882654e-03,-3.092845395893607709e-03,-9.785899652263937654e+00
-7.224153443352077791e-03,3.543932870503643199e-03,-9.785660522324501898e+00
8.181984068826824016e-04,9.022949217325900925e-03,-9.793870034266403124e+00
3.637786305889174291e-03,6.628334857957714037e-03,-9.784937793834645348e+00
1.136036451565036395e-02,-7.817677986556328257e-03,-9.789967444363259830e+00
-1.301808922368604619e-04,-8.713770369520484546e-03,-9.785969114215911091e+00
-5.388766451913763050e-03,9.922467640295731285e-04,-9.791651041638480990e+00
3.203996121550101769e-03,-2.207779103893918633e-03,-9.801641470505536802e+00
-9.033593679970673435e-04,-8.277456004893575872e-03,-9.784019199593794625e+00
-6.131561166947329007e-03,-6.873281396321879143e-03,-9.790138272254099050e+00
1.195719051220827354e-02,-1.107657039228476976e-02,-9.787691126064929747e+00
7.655016694553087083e-04,9.636526156524404408e-04,-9.801731222475559946e+00
-5.530779604948198730e-03,8.239515337721166344e-03,-9.784067972812200864e+00
9.185093810466633119e-03,-2.767281745597770064e-03,-9.807109708823320560e+00
-1.427413657506537183e-02,5.468758144146371267e-04,-9.787358222539102925e+00
-4.438160533647881982e-03,-7.692992394456032133e-03,-9.791321040623392591e+00
-9.857680196201264178e-03,3.331831830483693475e-03,-9.798002599371322674e+00
-5.807300011138256599e-03,6.703379030179401708e-04,-9.786150600691005508e+00
-6.338704579453829230e-04,-1.887414448632844868e-02,-9.791658319366558061e+00
1.215350303394233458e-02,5.509697094073420960e-03,-9.784391374070567693e+00
-6.376261961572117325e-03,6.869887363150384632e-03,-9.793882200041482022e+00
9.916023633158171230e-03,-1.451490652855183527e-02,-9.803739860570022557e+00
7.403172923319870612e-03,-9.463223996576314301e-03,-9.791708898220390367e+00
-3.283707642076389745e-03,3.002334832372812335e-03,-9.795631338465376814e+00
-3.834301302843304282e-03,-7.879254033915180158e-03,-9.801589806329296550e+00
1.366497910222047845e-03,-7.073669713583969135e-03,-9.786095796009979253e+00
5.110837153890545291e-03,-4.531188180018450896e-03,-9.802521886280707974e+00
3.174439471144813521e-03,-1.045439851838934550e-02,-9.793417826386283664e+00
-3.408275399780582009e-03,-2.109204849979631757e-03,-9.803694742844967891e+00
1.548974794143198955e-03,-1.304718584785677631e-03,-9.790864021968706865e+00
-6.667324099865237254e-03,3.694901262519603713e-03,-9.801502777995457549e+00
5.303204321099223330e-03,-3.694555866335716247e-03,-9.796796973424397592e+00
-5.140437978126345848e-03,3.328751807187500019e-03,-9.788902524583848574e+00
-3.588364986385841632e-03,-9.570245237660820505e-05,-9.797544710589397354e+00
9.176206985471625430e-03,-5.114460867855457997e-03,-9.767189467091062838e+00
-8.290941885677097223e-03,7.804346978017789351e-03,-9.782084976551201905e+00
7.974114534381390729e-03,-1.146916302395475928e-02,-9.793170985348000457e+00
-1.212796110147448120e-02,6.175691155620442394e-03,-9.799383195056785567e+00
-4.318357051075787795e-03,-1.523538758795141366e-04,-9.797315660848056496e+00
1.534227215268380885e-02,4.162874708428566245e-03,-9.797478339425380156e+00
7.626007682883384139e-03,-1.055851382384876899e-02,-9.784742891064047043e+00
9.190091952007383683e-05,3.896529037835118857e-04,-9.806045765814838333e+00
9.816675239179582790e-03,7.157450638043465381e-03,-9.800919746805540456e+00
-1.779597756275637030e-02,-1.991389571368697240e-03,-9.777203102142875579e+00
9.703968898193164258e-03,3.929954269969224319e-03,-9.791489270450778548e+00
-1.787972651573059698e-03,-7.940668575529814463e-03,-9.790298547076758950e+00
-9.484764960211668552e-03,-4.876954604708341745e-03,-9.806523283102787758e+00
