gyro_x (deg/s),gyro_y (deg/s),gyro_z (deg/s)
-2.151286130103420308e-03,1.683248705311573418e-02,-1.036924277327063576e-02
4.344612308087229119e-02,3.816240182682825721e-02,1.368949865851730105e-02
-3.720693478230704954e-02,4.924166969095854218e-02,7.726950483289915517e-02
4.659576048697636544e-03,7.804345299441056705e-02,4.485205234312537176e-03
-6.182914978759966596e-02,1.222739763656390255e-01,-7.015864438530022840e-02
1.414472268589229802e-02,-1.036604302881327482e-02,5.802232303151981518e-02
-9.658547151636488748e-02,2.863136303644365013e-02,3.943274036128817904e-03
5.577454122863459429e-02,-2.889052718247025336e-02,-3.762744161368470480e-02
8.228067342909251014e-02,-3.885965407938526267e-02,4.522758291896186722e-02
-1.519041396517700759e-02,3.781739702489124444e-02,-8.009489378868306364e-03
-8.177677312451615832e-02,-5.630019414832997116e-02,-1.796540536136242636e-02
-1.615616360042116241e-04,-1.086614344113503577e-01,-5.594129956659898290e-02
2.973017114780104539e-02,-2.761929991831291870e-02,4.760459154282816602e-02
2.867287025672651812e-02,-3.029498562985911622e-02,-7.505797787152848621e-02
-4.703139156393691678e-03,1.078839499047625460e-02,2.349538773704978531e-02
-1.157885979057179798e-01,9.372837614955935315e-03,3.297248799791641788e-02
-5.382145794564126284e-02,7.072009642533902407e-02,-2.997495774581814681e-02
-6.093082853534093069e-02,1.999779032172718102e-02,-7.486117777938144924e-02
8.199929928321982031e-02,4.796550735068767085e-02,2.552139960116706074e-02
2.605663389023618257e-02,8.478031193908619478e-02,1.004954357709258173e-01
-2.188582448236418496e-02,9.280009535193500803e-02,-2.232047458544665630e-02
5.088783255773962622e-02,5.127127044097507316e-03,1.854930408819383675e-02
-6.623359314814206145e-02,4.867636215362036722e-02,-3.218031481129111915e-02
3.388466925605889551e-02,-6.602578269971685898e-02,-5.238668994934315287e-02
2.058931219356339645e-02,-1.090584498588623025e-01,2.279200494221957085e-02
-4.306686552889877478e-02,9.766768481848757399e-03,-6.567542683629538913e-02
-7.789914026443851836e-02,1.184682777985355574e-02,-1.241989548114650899e-01
-1.062367689156245021e-01,-1.509401109561659404e-01,-1.559267692250259629e-01
-4.497301568999129140e-02,-3.190467907658780383e-02,9.760041410239603255e-02
-5.132872892810888500e-04,-1.096776643180191191e-01,-3.278030544272420022e-02
5.802566916637770522e-02,-3.580700687412714800e-02,1.189420723768913474e-01
8.928943206240852470e-02,9.321054212423809937e-02,4.490631717982682819e-02
2.633507719538768360e-02,1.447938219259659910e-02,1.710856465547829983e-02
-1.057709893943871264e-02,3.228919375783779327e-02,1.381389521234084768e-02
-5.506804461783124799e-02,-3.961351431909632126e-02,6.547371340670402051e-02
-4.145138442916836835e-02,-1.622062003614098066e-02,5.569759896728657816e-02
5.259585733301265845e-03,7.105340282717931277e-02,7.952515738719736701e-03
6.439945026055124422e-02,4.496386757015705810e-02,-5.764851513834554769e-02
1.048955837015299736e-01,4.272224565348776287e-02,-4.648653380052892442e-02
-4.549559963836413007e-02,6.309437220991377659e-02,1.077208516929002192e-02
4.219679916866148073e-02,-4.939610416394375758e-02,7.369863083792572642e-03
-3.694927375590396218e-02,-6.129409744609763677e-02,3.583649775216577078e-03
-7.008778001374717237e-02,-2.866061347074295995e-02,-1.254288297037144118e-01
-4.557606113796592445e-02,6.208745722332232458e-02,1.983026818267647623e-02
-6.176657346566293699e-02,-5.712402152545162370e-04,6.914597919635462331e-02
-5.365955486184170731e-02,-1.827431089719972965e-02,-2.789243461742824115e-02
1.165643718821432057e-01,-3.968741582534940360e-02,5.950092757215981465e-02
-5.333765914706651429e-02,-4.490680346173629711e-02,-4.810156876998708531e-02
-2.674930377981565507e-02,-5.913213363503350140e-02,-1.053579298933139674e-01
7.678583666495720703e-03,-3.485715957335133730e-02,-7.855107907034419856e-02
7.057897034146659934e-03,-1.064697441853091064e-01,-5.543525435064555751e-02
-8.699855810306038328e-02,1.139286756869999431e-02,5.094251515446326234e-02
5.925438494954609475e-02,-3.023857191598447198e-03,1.143155531355763838e-01
1.253358448960231741e-01,1.124457787049094326e-01,-1.040205709186662053e-01
5.817569932306309276e-03,2.838979407099540345e-02,9.372276651696598076e-04
-8.243849146181701434e-03,5.264209213677092936e-02,5.734686281011076858e-02
-3.553279642165126789e-02,-2.198159350882415361e-02,4.577393339664839744e-02
5.656086262062506170e-02,3.777692795092953137e-02,-5.584841364321938700e-02
3.562784691691299466e-02,-6.069285706980996620e-02,-1.396966991800138447e-01
3.331064981477637604e-02,7.630546337289913217e-03,-3.593622837132329217e-02
-3.667715007237775521e-02,4.319771864648797727e-02,7.599090016466107655e-02
-2.400437923917755553e-02,5.098903052413192999e-02,-2.460292687004612261e-03
-1.009493223204423022e-02,-4.406983819190021801e-02,2.330044929550992641e-02
-8.970173492908312118e-02,-1.299863758212950193e-01,-4.852402138202116522e-02
-1.018813447196272558e-02,1.010933239330322614e-01,3.021888798525608835e-03
3.248586535839834144e-02,-1.994354732156182128e-02,-3.439261402958956014e-04
-1.347705303698318313e-02,4.859334251403878147e-02,2.806687141015328651e-02
-8.949576032941371218e-02,8.695540770691376209e-02,9.897779543893209242e-02
1.386232101446006719e-02,-1.507059225145701842e-01,-1.611820975399797518e-01
-2.080084001109088268e-02,-5.905594319505597101e-02,1.559350302778309549e-01
7.199887754591953459e-02,8.242335185987167967e-02,8.681881691775515664e-02
9.853435650888807407e-02,8.062851140052521015e-02,-5.781758327222658728e-02
-6.593691704800204792e-03,7.820742954265533231e-02,8.306299458361145194e-02
6.929255212180426837e-02,-3.782992774452508672e-02,1.606672482716974340e-02
5.958987819479005278e-03,9.687304950414638363e-03,9.060886818603131054e-02
-5.234702729879728853e-04,-6.527253388868994866e-02,-4.450479833366547885e-03
-8.100425536272080895e-02,-3.357853026228483501e-02,1.689326987278235923e-02
7.724210121705911425e-02,-6.837801793772617376e-02,1.034657780724579645e-01
-5.618363565036637620e-03,-3.995797102993248195e-02,-6.513452384245323190e-02
4.859208605051004021e-02,5.549882016027723325e-02,4.657933734887178406e-02
-2.286370625145640531e-02,7.892223710374240975e-02,6.431011534122897970e-04
-1.512791513644276553e-02,2.214906314105984098e-02,-5.951976717236807934e-02
4.275672583284580164e-02,6.172052127269941901e-02,-8.138955987222086519e-02
-7.782968805428881753e-02,-1.002374158795197277e-02,-1.822366420488094954e-02
2.161229123776703398e-01,-3.057157073071663234e-02,-8.751123621173198530e-02
3.642165507390270063e-02,-3.884915289562195645e-02,5.325371917218519463e-02
-1.184501813022987987e-01,3.096250857199064552e-02,2.025504792557318232e-02
-3.582048419304796616e-02,5.868307890534529836e-02,-4.544379588690996424e-02
-1.338800806412741851e-01,-1.726041445707737418e-02,-5.079473476927118258e-02
-7.052594854667580682e-02,-2.460449199668079956e-02,6.978320498062152988e-02
-3.952573681746224948e-02,1.292175987119644209e-01,-7.168499406174702430e-03
-1.341587779613850027e-02,3.198532221295041778e-02,1.938255742774492446e-02
3.356263266782142513e-02,8.485731322187520242e-02,-8.030581287924559719e-02
-5.450174220846012996e-02,1.301811662845060724e-01,7.375679040532036324e-02
9.121702897065576965e-02,-8.739633883493190536e-02,-3.631412019933778768e-02
-1.834884374773757660e-04,3.555404023999373525e-02,-2.683390055140622010e-03
1.393939020990158095e-01,4.326471463514169891e-02,-5.127439328917157702e-02
5.784117408753763900e-02,1.147179038786810823e-01,7.023132450855754105e-02
9.865192685723890922e-03,2.953802408229455178e-03,-3.057896177144681094e-02
-4.822429456745710996e-02,8.173136760361762732e-02,1.741855662346455252e-02
4.951522102645264378e-02,-8.491264271271052599e-02,3.298050588641824460e-02
7.980325279062396027e-02,1.391277043816267212e-01,2.420969212946243176e-02
-6.096984985631336701e-02,5.681204138829402256e-02,-8.369000212750204553e-06
8.918188196031620607e-02,8.898718694087240366e-02,-4.764257216826821989e-02
-9.771828674497965925e-03,-3.889175499677696712e-02,-6.808546802751822002e-02
1.131004477821162188e-02,-3.477662339267428154e-02,-3.363303551329530419e-03
-7.668617724049218987e-02,5.189785962376294859e-02,3.127154156830042053e-02
-6.337376051965391659e-03,1.205710532823145269e-02,-4.359854295653195488e-02
-5.002570715068655610e-02,-4.425639552488145820e-03,-3.062176908937262396e-02
1.397606174716733429e-01,-3.634146670696090931e-02,1.270172544331532871e-01
5.899460116507452417e-02,4.095857882600544009e-02,-4.596785966562369485e-02
9.175272564815901977e-02,4.422460229462277931e-02,-8.827717292142746308e-02
-2.501788123199863781e-02,-5.197359281077146981e-02,-1.401519143192118434e-02
-2.278998291423355678e-04,-5.445125226899334009e-02,-3.331486929495295485e-02
-1.007816914316890244e-01,-2.121022739639530016e-02,1.469140962703975421e-02
7.833651520077566932e-02,-4.306328990469206197e-02,1.045424821535751760e-02
-2.257025426848961389e-02,1.429612508440867256e-02,-2.440287581422095550e-02
6.671580792744051525e-02,2.672535810726921115e-03,2.730651575763885092e-02
-6.062304946376121696e-03,-3.107813506585123051e-02,-1.428134896343841338e-02
-4.789990092616678262e-03,-2.168916963159370215e-02,-9.271042639654865358e-02
5.459158330437701573e-02,1.045333668114527617e-02,-1.510168413521168623e-02
6.303818428267320140e-02,6.965619357309686677e-02,7.058546353238438764e-02
4.554836041818183939e-02,-3.128065613878486251e-02,-7.344346687083911328e-03
3.095860630464965235e-02,1.049297841434077977e-01,-3.349240430166081084e-02
-3.009431403742900829e-02,-4.185822614906593853e-02,4.897499241450582047e-02
8.234655168711964290e-02,-1.328516508251876421e-02,-3.257407173378172593e-02
-2.873965372616892749e-02,2.755026982273721739e-02,-5.560610024300401827e-02
3.849715899541306108e-02,3.989776684221731096e-02,1.478577473508169149e-02
-7.001392092730315819e-02,4.788958496890527439e-02,-2.043063509043362147e-02
5.323770952545778257e-02,-2.013196272176541457e-02,-1.261255461492526674e-03
-2.142318461836700480e-02,-4.629898643842863398e-02,9.068777280062544077e-02
8.637487238698234038e-03,-2.091024016930946236e-02,-7.564314215760081783e-02
5.558751662417176637e-02,7.218294926321169869e-02,4.359679961650202856e-02
1.085037283391426452e-02,-5.209008391825128113e-03,-2.643650982063854016e-02
-9.762853173190802480e-02,3.938070305765289936e-02,-7.092421074082548571e-02
5.524827524036903664e-02,6.760650340596280339e-02,-7.527811582275215074e-02
7.885937233883945352e-02,-1.011013124512386875e-02,-4.920918914270588224e-02
5.301227720365251500e-02,-3.538880840082935658e-02,-1.047215787909980093e-02
-4.994551917817699471e-02,-1.751417408180852564e-02,-8.125045444095138625e-02
-4.018874759548696912e-02,4.382360108249529901e-02,-1.013533656604287125e-01
4.934595710739606012e-02,-1.203557600953004264e-02,-6.998830501608965804e-02
-3.570476328224308354e-02,-6.214815724799729879e-02,-1.340730579858159244e-01
3.099397277014217383e-02,-7.419170599046270853e-02,-1.892688852521358378e-01
-7.307968385001964093e-03,-1.307212137751809222e-01,2.222650144533531991e-02
1.934774995172441545e-02,9.544935626204989476e-02,1.938794859072124482e-02
-1.777966895130650080e-02,3.005549301916122032e-02,-2.652102523665837014e-02
-5.408096193954253089e-02,1.580768763345091060e-02,-3.053080032343560152e-02
-5.057380878350605652e-02,1.198886352562359009e-01,-3.645148499888761079e-02
-1.326099576117490374e-02,-1.071181107465207921e-01,9.951716185575075480e-02
9.710778322174865029e-02,-2.343946650279292291e-04,3.888087603431323452e-02
-2.224448013502470026e-02,2.035474093853507221e-02,-1.072764365531453656e-01
6.337725420145749744e-02,-4.151267578976438472e-02,-1.956719492494934584e-02
7.076363479107808385e-02,-7.435565957084144806e-02,3.756402450472429849e-02
-2.927153596332581278e-02,-2.582717162848446879e-02,1.712873343506747525e-02
2.993425389279561963e-02,-5.719572597586315005e-02,1.538597383584407695e-02
4.532511783923357657e-02,2.199766797451601502e-02,-4.791181125193268164e-02
4.482425659331091411e-02,-3.888353330545292474e-02,-2.436947059912786609e-02
-3.572927515260403836e-02,-1.061377364626434616e-01,-1.189283958382692397e-03
-8.955751156180313116e-03,9.477425852064422229e-02,-7.060019905576502518e-03
2.676639558631248306e-02,-1.011601061222299619e-01,7.829891956185207683e-03
-4.386554672562491958e-02,7.306625031750763055e-02,-1.303617379850623703e-01
5.062389975004340931e-02,-1.772024854938628047e-02,7.040590542816734486e-03
7.817106278385872742e-02,6.815240013981849199e-02,-1.057960886048953109e-01
1.005710142239753524e-01,-1.483026357390012685e-02,-3.480277814078529264e-02
-5.858175405231120332e-04,-2.358887417734216105e-02,-1.795036630839203992e-02
-1.913014102096599958e-02,4.746888503134725351e-02,-7.680311698532243762e-03
1.752388568453474016e-01,-5.288892678296359950e-03,6.342641164523685204e-02
-2.439696048021570973e-02,-7.895113206967487030e-02,2.355783925253203751e-02
-1.049577214044769211e-02,8.754892613135149826e-02,2.063394953162168630e-02
7.377790894002833610e-02,1.115302200307746461e-01,-3.910149533872882277e-02
-8.579081943188284973e-03,2.100716982253816780e-03,2.072222428909221287e-02
9.409270952736779187e-03,-4.467812139923035136e-02,-4.054515490285293122e-02
-5.557581542662338309e-02,-3.816243545256320369e-02,1.602865046816406847e-02
-7.536732960308961671e-02,-1.816569525054438292e-02,-8.597726289155101231e-02
2.251454550531378773e-02,-6.852591650163922590e-03,-2.400288876887247611e-02
1.228006679836643814e-02,-1.321560449251501512e-01,-2.613060835136661597e-02
1.164656285499371668e-01,8.220176038916639227e-02,-3.900746997951490963e-02
1.461393209316461106e-01,-2.110681173724189216e-02,-1.998619226651551783e-02
9.390093563905037646e-03,1.757383844621423705e-02,-2.281544496981623843e-02
3.110289452856466325e-02,2.609152036621575563e-02,-9.299643933872046853e-02
7.806192888171767374e-02,-1.480845991264140380e-03,-6.745148919807895938e-02
3.451965966351815823e-02,-7.751982464096825176e-02,-1.343451864888359770e-01
-6.724530659478331583e-03,-3.119309776347827315e-02,-6.182665427527000296e-03
-7.599631628001980721e-02,-3.900289036818062327e-02,-2.584223343075283189e-02
1.095180211488008988e-02,8.998207350897548251e-03,7.825644883903467436e-03
-3.188260478410744059e-02,7.477327827810015259e-02,-1.608535050664142430e-01
3.612350121500877698e-02,-5.108683584705449136e-03,-1.446114122896014192e-03
4.036199108994723700e-02,-9.011500449038480076e-02,-4.018811161720684672e-02
4.807962151536597506e-02,-3.689016834470872780e-02,2.117158282911914963e-02
-4.148346251253716421e-02,3.821463893110657595e-02,5.121842519464280680e-02
4.114098030267763356e-02,2.089475649027731571e-02,-2.289159314529227301e-02
4.774800833447999035e-03,-1.065102681314876454e-01,7.311879945147808924e-02
2.089319465646999763e-03,3.895648990386457039e-02,-9.664016816283819977e-02
4.993504605927086976e-02,4.238222804331578941e-02,2.849628018866755264e-02
2.376019196593971705e-02,-5.278290893025609776e-03,-4.137551670791656325e-03
3.839984411513559792e-02,1.092511893284084101e-01,5.185587127583544259e-02
4.274434826875066207e-02,2.433877321182888881e-02,-4.256608375519185458e-03
-2.810552457449848676e-02,1.190443905713416649e-02,-1.495376067275434352e-02
-7.998460775918165427e-03,3.150643193780938711e-02,3.058597531503425351e-02
-5.296635906703515972e-02,1.623620339185019926e-02,-1.116037761558769971e-02
-1.715423361445603603e-02,6.998289562143422682e-02,2.779492757681106471e-02
9.448576483670641235e-02,-4.652760589639107214e-02,-4.756891280991250304e-02
-1.987942786499873396e-03,-3.149381525933637061e-03,-4.686221109227174664e-02
-1.405696332720715071e-02,5.233578010544491510e-02,7.520644099922406400e-02
-6.613656437867297677e-02,-1.229821531100280634e-02,-1.364293831565541876e-02
4.575459560280404486e-02,-1.148441853842707694e-02,-7.205933439324958834e-02
2.841248747849722464e-02,1.809938977661757972e-02,-8.136437432843841855e-02
-7.454347972370288511e-02,-2.869755312355807067e-02,9.466203951548872453e-02
2.216840837400795017e-02,-3.252429503182413528e-02,-4.087050166631950483e-03
-1.908019210739925892e-02,-5.178638700387874771e-02,-4.244612651171453949e-02
-1.396971449383001447e-02,-1.461847286724843147e-02,-1.353486727877807605e-01
-3.568960308129821846e-02,4.396467199727822212e-02,-5.449032180691688182e-02
5.576336039284335994e-02,-8.822624419416617153e-03,9.820939821506782796e-02
5.821375490528626906e-02,-6.490727027912006342e-02,-1.797112883714035991e-02
3.563346890811499440e-02,1.349564857516558081e-01,8.265755286650200429e-02
3.475487598237973763e-02,-1.428226865644228148e-02,4.160964004795158350e-02
-3.539688854630710507e-02,1.067545201165422536e-01,2.376158582844587266e-02
-1.270943303407226499e-01,2.906741532788757396e-02,1.109365894168558436e-01
-9.524920950227741545e-02,4.958409377340794455e-02,1.053800906232746498e-01
2.207829854411678949e-02,5.265074158135991250e-02,5.978800419016049722e-02
3.644775181995404262e-02,3.897255590273852183e-02,5.058524710352927528e-02
-3.320453740556097294e-02,-7.919479866752777986e-02,2.231417720536204435e-02
6.579825110919183817e-02,2.990736007950290168e-02,-7.771934238965645669e-02
8.463066675994422583e-02,-4.121562981686547472e-02,-4.861648679849121107e-02
-5.298716903153603136e-02,6.822217496322924291e-02,3.773254309430682657e-02
1.466264654553926794e-01,2.279755138036019049e-02,1.425737629904920145e-01
-8.299972797148917614e-02,-5.459171847253335014e-02,-4.634363637544968578e-02
1.475521318315332897e-02,7.922085410029371111e-02,-6.131948741374633471e-03
-1.709421915735617054e-02,5.791478475496993419e-03,7.193092169958253956e-02
3.886405918686054034e-02,-5.295567764674548317e-02,-6.297143891484746625e-02
2.029846905285295072e-02,-3.258818722822919706e-02,-2.640401839240909265e-02
-8.578670726837355973e-03,-3.442180128325430383e-02,7.344702355905145807e-02
2.689349267743580685e-02,-5.100021525516225396e-02,5.509316984951382820e-03
1.366615898996110523e-01,2.813135146109806140e-02,9.969352993313683464e-02
-3.206938750949549916e-02,7.861635029172679701e-02,7.718161644110432817e-02
2.427574983493767727e-02,4.321059210123763539e-02,-4.461463965226553086e-02
8.094050712997122310e-02,-2.303296148550953298e-02,-1.914302701398777964e-02
-5.039408494633758340e-02,-1.655295136394701813e-02,-4.438519282112609460e-02
-5.361054277430677556e-02,4.036976140155454362e-02,-4.285431751647438871e-03
8.990062476719459100e-03,1.563761537447249522e-02,4.009184812851657870e-02
4.252165850508697609e-02,1.578673023131612133e-02,-3.906970040730470273e-02
-4.175415541348255488e-02,1.005135604547270217e-01,-6.793917955293370115e-02
4.719744379928565020e-02,-7.534574062451744603e-02,-1.367342668782101610e-02
1.623782914703476637e-04,-3.796636697185498677e-02,2.614836578588864910e-02
1.380190626522362352e-02,-1.568044141164353505e-02,1.627736617619568102e-02
8.968984620166343957e-02,-1.028478358769617795e-01,-8.320943627531475484e-02
7.623723299186412191e-04,2.766588446294020176e-02,-4.662867699155554685e-02
4.179261794488565301e-03,-2.580227865832777912e-02,-1.001123024815179507e-01
9.354420796421102080e-02,-5.817363160466706290e-02,-3.281825487612483050e-02
3.463105879501899437e-02,-2.397229015915921732e-02,-3.068136897052379727e-02
6.568631936300922680e-02,-7.687018271388125490e-02,-4.434697016428394158e-04
6.565541613653668070e-03,3.374158138477593299e-02,3.771163168290971035e-02
9.768320940582184142e-02,9.068220696855837024e-03,5.696114897780468062e-02
1.363741372321119194e-01,2.770817656346506730e-02,-3.535210701481714818e-02
2.355141286286106458e-02,4.767399546843004848e-02,-2.485171486995281856e-02
3.809929369903967272e-02,5.472613968085261738e-02,-1.746456967824053241e-02
4.273491507945052087e-02,-7.181259714945527339e-02,8.830008016982709984e-02
9.822655476301775379e-02,1.269511255101290759e-01,4.845468903866663457e-02
-9.773523935892293457e-02,-3.919748589831995034e-02,-6.540544238661576137e-02
1.468008259824575001e-01,-8.414806432224612373e-03,-1.471561177374269558e-01
2.581235087979391954e-02,-1.749712631561241641e-02,3.501869451458589078e-02
-5.649606413004999933e-04,-9.935802255964565344e-02,-9.401469885684195227e-03
2.219612509838604295e-02,-4.810926745462136556e-03,2.952482441137992131e-02
1.036470008778171345e-02,1.496466414564467107e-01,-3.892357938771211223e-02
3.850900457216073491e-02,-9.203978388480986428e-02,-3.750103228135715644e-02
-3.031994939511655288e-02,5.621283410492192850e-02,-1.128010450477076043e-01
7.400067091871448399e-02,-6.416796189635040615e-02,9.718499151044480977e-02
-7.661069639944646792e-02,1.190450663373900375e-01,-1.379602828129997821e-02
-5.395115858781909975e-03,-1.046405619996255004e-01,8.314765529148060441e-02
3.200399540898236223e-02,4.840257938828503720e-02,3.323591941726922183e-02
-2.318845067865369161e-02,3.165681962225297408e-02,-2.295426470052084472e-02
5.590152403061116743e-02,-7.089963868177351532e-03,-3.140821336616286819e-02
-1.219983472371500149e-01,7.289389870355114653e-02,2.665928028750631025e-04
-1.057801662127173387e-01,1.943354656614603576e-02,-1.085589801142550215e-01
-1.240201112073269045e-02,3.109654456115850882e-02,1.076814130812890763e-01
2.856459966857344268e-02,1.202107300855559391e-01,-1.227474893700071790e-01
5.344646748400710273e-02,-1.787076434279904341e-02,4.402866758956502924e-02
2.298303399534776812e-04,2.424352742258990140e-02,-5.082069219051889991e-02
5.663380632295077211e-02,4.016265226391792925e-02,-1.080156871537395896e-01
5.282446043816658998e-02,4.097877222319364077e-02,-4.582730377670637956e-02
4.901784143447052156e-02,1.857158823423457270e-02,6.195107304138320475e-02
-8.780073764293519489e-02,-2.645299918559330249e-02,-1.754283087791834450e-02
-1.168159739097160005e-01,2.938659669818504891e-02,-2.266822328239050457e-02
-4.268089367075161150e-02,3.836971910379070178e-02,5.302322313197355835e-02
3.546903340800658389e-02,-1.971396021037053956e-02,-4.207825305940046667e-02
-1.501618512304192243e-01,1.946643862996669250e-02,3.633905527915836688e-03
7.257531838403845359e-02,8.449743640336798353e-03,6.636416265548274185e-02
6.548811509429125488e-03,-1.514064543901770012e-02,5.948588411011631466e-02
3.878442662888722386e-02,-4.624155860989113791e-03,6.689405573374639091e-02
1.900288575138177338e-02,5.418137767252294290e-02,-3.763603887737342751e-02
-3.212374866327775969e-02,7.077982765862812775e-02,-3.566883143288715474e-02
6.232320488657612512e-02,6.123178805051586113e-03,-3.311486978264669562e-02
-4.981248395800472878e-02,-1.010591328168005121e-01,1.082117837916199560e-01
2.404856496327829191e-02,7.160458558705187770e-02,5.924386447327965183e-02
3.402371878139905104e-02,-4.750367434188986632e-02,9.232092219423924462e-04
2.104361625405203051e-02,4.159935676073034383e-02,3.506879841663095715e-02
7.237396206800439380e-02,2.900844010971447701e-02,-4.180610028853827542e-02
6.667431640672382906e-03,-5.810661851486606522e-02,1.102736982494298065e-02
-9.758193263211810409e-02,9.550729916975274347e-03,2.452366894764105784e-03
-3.874229943385876923e-02,3.636315584913276527e-02,1.271273191788953837e-02
5.318668833474157059e-02,5.915871437435441665e-03,1.073884720237198304e-02
5.690740662743506290e-02,3.347839152006698571e-02,-1.429322862053273441e-02
1.400074043512630761e-02,-1.337889232070101631e-01,3.738782571835876350e-03
2.966987031611577688e-02,-2.734686548454613730e-02,8.325905126329130601e-02
-4.820708114130677069e-02,3.141812354052341688e-02,7.250248299853684353e-02
2.154128815434596181e-02,6.458725628634381932e-02,-7.113137781838618778e-02
-3.566777446763124554e-02,7.126188070718934495e-03,-8.298970299723774924e-02
-9.514636398872303169e-02,5.626055380183964116e-02,1.822271090486922429e-02
5.667498586930923982e-02,-2.130025243531807801e-03,-2.089315895349739063e-02
-4.198330379654170025e-02,3.178022714072199773e-02,-2.848746782131435923e-02
-3.603138172489678964e-02,9.392010623833055641e-03,-9.018898168992883768e-02
-1.199550043913228947e-01,-3.137367498371772256e-02,-7.057002529987739525e-02
1.044866371886306452e-03,1.796867447339132659e-02,-5.907468932888992191e-02
9.462747075337843428e-02,-7.163167573195712567e-02,-1.061524551036503033e-01
3.844210858824531618e-02,-5.560321254407068342e-02,-3.167354364652930077e-02
-8.460511578890095308e-02,2.617105770388588118e-02,-1.290348967757805505e-02
1.308834523993579468e-01,-1.225017453378392795e-01,-2.349150681889881215e-02
-4.590399036655971182e-02,6.098299109542264229e-02,3.518250028703603927e-02
1.764361898149436822e-02,-2.446746550051440844e-02,5.815223164855431309e-02
-2.770260503934382588e-03,1.092774090594438308e-01,-7.729546190296039676e-02
6.573969057910639645e-03,4.281048565754537807e-03,3.689580676718148822e-02
-9.574981470621697632e-02,-3.006249962233649084e-02,4.981137254000698317e-02
-2.398153985499068552e-02,-3.363282932143538129e-02,3.471987343950946187e-02
-5.973834182996648479e-02,-5.950768732176479892e-02,8.373517356352859486e-02
1.526736021853905001e-01,-1.864663989204685740e-03,-8.549011869547320022e-03
1.938225370343904519e-02,-3.042104207710957797e-02,-3.121543595701517168e-02
2.087508284072543338e-02,6.460961598756603808e-02,-8.060388112141289585e-02
-3.640318687805092768e-02,-5.689824796112182004e-02,1.013073903027792572e-02
-1.515535416366901866e-02,4.624918161814168399e-03,2.490296159520286978e-04
-4.943129541264660448e-02,4.562291352834361990e-02,-2.311321622808521284e-02
2.163920828795522916e-02,-7.358721115907963795e-02,-2.016975252319283887e-02
-2.979076250595610528e-02,-1.157132881918871217e-02,-1.200405983585333715e-02
-4.167416794338520830e-02,-1.683317832123648952e-02,3.138452373765433789e-02
-4.670521612532968492e-02,-2.111027525080162032e-02,-1.806993272608145226e-02
3.806061209555375996e-02,-2.826891037509278795e-02,6.124683011939715399e-02
1.031947618432533659e-01,-5.628154579448249595e-02,2.242856147687006391e-02
-5.613987331563419225e-02,5.424538905662853322e-02,7.075435979265523589e-02
1.447138966623235101e-01,6.729846435584695141e-02,-4.209824534403797287e-03
-1.860501137622465589e-03,3.929139633202469867e-02,1.954410986457609349e-03
-3.880899411568527330e-02,-2.143756064120196092e-02,2.074073483312522184e-02
-5.207725548902491369e-02,-6.003371805515724663e-02,-5.544758046967275533e-02
5.198822907596523796e-02,-8.675391820452940661e-02,3.380084353359928684e-02
9.267214624522128463e-02,-7.479884221076826822e-02,-2.017200224325085833e-02
-6.191583554673047579e-02,-4.455412743025487926e-02,8.990536051355814059e-03
-2.807574746462273771e-02,-7.319396643960195126e-02,2.610235932965123892e-02
3.915012656942452873e-02,4.155962184254613501e-02,-6.815860563242912007e-02
-9.674245430969974358e-02,5.288215865795647258e-02,6.093631603832414673e-02
-1.445331476650699339e-02,-2.440709012703487849e-02,-8.221255705998323227e-02
4.201045111076431621e-05,6.105303948331729930e-02,-5.958136094368704505e-02
1.451473947951736621e-01,2.989982150288136853e-02,4.661905572345774115e-03
-4.692968609998011964e-02,4.844222956555863796e-02,-6.589601358781645157e-02
6.363780542503862450e-03,-4.055790003590408616e-02,1.676368514939545820e-02
-3.368969978473240236e-03,6.036574325980565738e-03,1.405711429575118472e-02
1.278840452953679263e-02,-7.398573036157689298e-02,5.078810332951116252e-02
-4.951888518613930396e-02,-2.804402024864094053e-02,-5.271208996332596604e-03
5.119519341653306667e-03,-1.213205998530624136e-01,-2.598078684279283082e-02
-5.832766592080210893e-02,5.339811407918467617e-02,7.447851573171486439e-02
7.606045322955323588e-03,-2.853811155599506044e-02,-3.131986880451383126e-02
-5.247437590189922563e-02,7.682842192975239404e-02,-1.638884292509117796e-02
3.470174188496076562e-02,5.824442639543531836e-02,-5.181798487861613567e-02
-3.515903025500415058e-03,-5.543426687790187907e-02,4.785628231828487761e-02
7.495565281456194329e-03,-6.902779833147011657e-02,2.274576325983290737e-02
1.718713427468774452e-02,3.578131563768705567e-04,-9.907755398604108088e-02
-2.647766868597874884e-02,-4.333739677509263616e-03,1.338310732782704571e-01
1.174905382653533836e-01,9.305211848792176166e-03,2.541248842007598832e-02
-7.301789843698626437e-02,-1.052404302301984326e-02,6.757436129359952783e-03
4.683085743470431078e-03,-6.800106562374617566e-03,4.358781671622986159e-02
5.273446425273910221e-02,-5.050395539647064939e-03,-7.927208949526909354e-02
8.665710331229056415e-03,-3.627604284820465375e-02,-1.605021020649569086e-02
-1.744690128333062709e-02,-6.753028326136128849e-03,3.629922959417294231e-02
-8.425070390315904378e-02,9.294234552147007111e-03,-1.045326395408363238e-02
2.378020042595357930e-02,2.379371589060194636e-02,1.361272586978704534e-02
4.382076701563580867e-02,-2.329262870089220464e-02,-8.256864439710513703e-02
-6.157433467006759309e-02,7.377067102375929608e-02,-2.303929292707995041e-02
2.563365643034888966e-02,-2.946014903942151264e-02,-2.651804652932657907e-02
5.513498838415043651e-02,4.908132381159865942e-02,2.259773362765623086e-02
-1.455027981540938861e-02,-6.102474069461283172e-03,-2.625271292842145179e-02
-4.038610034881312885e-03,-3.881328709848921171e-02,-3.894905082323630446e-02
3.434777842228735941e-03,-7.334522944956524404e-02,3.864642937759524277e-02
1.967370054054497913e-02,-7.800421074815377942e-02,-3.740746923005051818e-03
2.173105069456030599e-03,-8.401123040651174712e-02,-6.499685143548313004e-02
-8.696864908222051715e-02,-1.071482716729038887e-01,7.041505947181021796e-02
4.815206295444629525e-03,8.688269068705643805e-03,6.070639987298074962e-03
2.847798440902922501e-02,-1.040319781271737409e-01,4.070807477655520590e-02
2.376206973254448365e-02,5.014047438044091226e-02,-5.310954467708583343e-03
7.075832043168649166e-02,1.339146117142483300e-02,-1.131961664380459753e-01
1.320445204794488958e-01,-1.966028287545600398e-02,-1.894958461607162623e-02
4.095166719001740174e-02,-2.744301606251832101e-02,-1.433448866521698228e-01
-2.271662688802084454e-02,1.107229016935597082e-01,3.822438792331821905e-02
-2.413231864109301877e-02,-3.047488400998641170e-02,7.291477852283458072e-02
-2.133016899781629838e-02,5.998720951216865438e-02,2.122362802811073729e-02
-1.485690183796496144e-01,4.650762687510181723e-03,-6.131526408304031200e-02
2.143685599969422095e-02,3.179728050815090745e-02,-1.040002281946630774e-01
8.631779331938499444e-02,9.738555598669654950e-03,-4.181223222973016324e-02
4.414027970021629915e-03,-1.613053358604529895e-03,-8.774875316041560666e-03
1.160739959200071843e-03,7.616664995988750575e-02,8.789065341268641196e-02
-3.340317340996137169e-02,-1.129368248880850273e-01,-3.117470439172527995e-03
1.643419413501537307e-02,7.174753364634027519e-02,-1.268510130635989996e-01
-5.503913274259917415e-02,-1.123324023486046812e-02,5.789793732706598195e-02
2.039836031394281005e-02,3.400302082132645315e-02,1.218893270146081433e-02
9.027405635942360729e-02,-9.447071727175058043e-04,-1.062888763241853773e-02
1.560903213458406970e-02,4.626223670913363895e-02,2.524667640267249519e-02
2.752580038629224776e-02,6.599196920899583207e-02,1.519625547363111576e-02
-2.784191563640693590e-02,-3.346485539358418776e-02,7.809947779782665245e-02
1.168683563287277807e-02,-5.851580552964925040e-03,2.318104908327929536e-02
5.606240245472516454e-02,5.888805343936678177e-02,-9.441465029430173850e-02
-3.941842541672097716e-02,4.722769503627875787e-02,5.720872621594731006e-02
-7.162320869544863688e-02,-2.533811496348956430e-02,-1.957118691238148370e-02
2.505218074524749941e-02,1.416027184544416638e-02,-2.368333973340435925e-02
8.681311836696822826e-02,-2.298495319974205170e-02,-6.385031370721774846e-02
4.691612297775667878e-02,1.018936902145564510e-01,-2.906953388175782457e-02
1.995966736699202743e-02,-1.191560766199387632e-02,-1.032211456296742713e-01
-7.785878249627086779e-03,7.878622104331642340e-03,9.634801620442233483e-02
3.465079609842088015e-02,6.581048101171876365e-03,-1.060187593681774371e-01
2.992653442821232093e-02,-2.148885360193049723e-02,-2.980745287825795412e-02
-8.939772381680638480e-02,-2.709303428082937906e-02,-1.214773201611228995e-02
-1.033304352237592455e-01,-1.062780191765718037e-02,-3.417915244423050392e-02
1.184404968110185086e-01,-1.094182714641671189e-01,1.073499905156987712e-02
3.307601476848973793e-02,-7.853129136679865008e-02,-3.879837523043201675e-02
-3.331081455791196078e-02,-5.688210774936017927e-02,-9.952006543966358809e-02
7.178127860065217081e-02,-4.024499605667004182e-02,-1.652144670718141278e-02
2.597926992940186963e-04,4.518171267800295821e-02,-3.580756226210563345e-03
4.616023345377203747e-03,5.565316032708841204e-02,6.531389644050758503e-02
4.172221937264168623e-02,5.427860683588631429e-05,2.602590412127878464e-02
5.429962677749152616e-02,-1.390115265168660914e-02,8.324057908746917284e-03
2.345879625819717249e-02,5.216930717662839750e-02,7.520719206407591728e-02
-5.771684630447012493e-02,-2.988286916016679243e-02,9.422847590709169940e-02
-8.166810903476304229e-02,3.848437601111037026e-02,5.756992815670968627e-02
2.435675982093833680e-02,5.289954811820141850e-02,-8.023624549212793333e-02
9.942707599595096077e-03,8.269230983391957085e-03,1.019711774217248353e-02
2.879194112393945043e-02,4.821247235542387710e-02,-3.509593295627564530e-02
1.907015163734790408e-02,-2.415674664160969570e-02,5.755015717467850365e-03
-1.192110903912947523e-01,-8.602616385814170971e-03,-3.504670274035369404e-02
1.005046147684366710e-02,-6.389325574222372295e-02,-7.306257852861962332e-02
5.292730138877082408e-02,1.347675431935690671e-01,2.527841234026052472e-02
9.490096162346924047e-02,-9.343507684835855587e-02,-6.256066583015047755e-02
-3.832967090856474746e-02,6.719749793881026056e-02,8.926876634986481707e-02
4.833327621127272121e-03,-1.976517232258849857e-02,-8.028428122501000963e-02
3.100321350650314320e-02,7.427712757468511034e-03,5.477479927957167039e-02
-8.599093897339910031e-02,-8.665106054639691580e-02,1.806152982095929685e-02
-8.938096515748544801e-02,-1.278546610080241175e-01,9.026462612681673478e-03
-8.165464212234488373e-02,4.444411500414367083e-02,7.422026490811004656e-03
-1.131559139266627295e-01,3.100575330506533805e-02,4.254394146942220428e-02
-1.536409608864077077e-02,9.447900537744130869e-03,1.409306892905793848e-02
-7.859476651016630844e-02,7.322177729484505293e-02,-6.086984528836612840e-02
3.584301657167991012e-02,-8.001037035723744528e-02,-7.614350201579223043e-02
4.650774420276381285e-03,4.237364289936244172e-02,-2.830012386903766816e-02
-9.652216958414763792e-02,7.322576880929619614e-02,1.041612726184585891e-01
-2.718565810181968953e-02,-4.458075323654889927e-02,7.175726018388535465e-02
2.231845478293339319e-02,-9.103854410597489455e-02,-6.128105134594109132e-02
1.959996549971839697e-01,1.089878532361392427e-01,6.948440585693503591e-02
1.370458247421962039e-01,8.812011432151732604e-03,3.362991666328071783e-02
5.494996655509469530e-02,-4.133616742993819620e-02,4.130413054991663446e-02
-3.145636032428596185e-02,-8.734746151335867279e-03,1.236907711431489351e-02
-2.702313279113012501e-02,1.842316515226795348e-01,-6.887552845006034152e-02
-2.740546159026788567e-02,5.438045675598999346e-03,-5.698254562369439030e-02
-3.019532651022233463e-02,-8.523759099066444134e-02,4.538118240646523555e-02
2.468810412072249688e-02,-9.038830347850095037e-02,5.071428185078375589e-02
-7.641978048649650246e-02,-7.759320661551578902e-02,-3.452235392416307808e-02
-9.214560022734546996e-02,4.565802871478641389e-02,-4.042847925169914397e-02
-4.021579009892947698e-02,-5.883239474118596990e-02,1.254619026733652144e-02
3.842947080619449340e-02,-1.737257010827727641e-02,3.076386916364944393e-02
9.884026922741403001e-03,-1.187381777901594798e-01,1.150447477248200540e-01
-4.204205728530650138e-02,7.700652919485005687e-02,5.538102022230158294e-02
2.680213707410189494e-02,-4.037117075439201203e-02,-1.491427817578203953e-02
-7.806181956713642046e-03,1.304474555758147192e-01,-4.454589911379544520e-02
8.329023742516671047e-02,3.636908659233503011e-02,-1.157651511170955209e-02
2.335973599432493095e-02,-3.832594442838009596e-02,-2.391568385562153204e-02
-5.221359301532098318e-02,1.041611442453350134e-01,-4.945019734235581860e-02
-1.323292039711768675e-01,5.160510914492900253e-02,-1.210710918013683662e-01
7.479611399936782201e-02,-2.986628291394125001e-02,-5.350889016603255915e-02
-1.005498389937148768e-01,-6.680065149298591506e-03,-3.284026783833025182e-02
5.309528684262000003e-02,-9.683095268957910007e-02,1.088434833021335868e-02
3.490866395476514145e-02,2.251569530104152728e-02,-9.072849006478442280e-02
3.613966510186435860e-02,-1.394207792801607435e-02,1.149666916005230022e-01
4.161909063040848678e-02,2.054113257623348468e-02,7.635431264275169272e-02
-1.167371646295236980e-02,-1.167582058838263250e-02,4.455390280704545070e-02
3.146181952687224920e-02,5.582602084278441568e-02,4.172123552477738362e-02
2.215956124261325710e-02,2.681585998647220692e-02,-2.424018647795795484e-02
-1.812379883171595651e-02,-4.002830015572602512e-02,-5.038176801805833993e-02
5.773158333506495793e-02,-3.517314505559724497e-02,1.584486736124711415e-02
3.396947198218459862e-02,4.150356028534263504e-03,-2.689816620623381588e-02
7.725451011169377769e-02,2.288646440217201317e-02,3.227579677664638158e-02
-1.044918450098571150e-01,5.197994975983918214e-02,2.391112600363920482e-02
3.579390950025210932e-02,3.246203612473040623e-02,-8.864850626657555521e-02
1.583596459237101295e-01,-1.164455912317528263e-01,-6.202427096638024780e-03
7.228738654978382472e-02,6.644745094962005438e-02,-4.294926074993245940e-02
-4.398065326530310216e-03,-7.511829824503839584e-03,-5.591042244854479287e-02
7.479245091919645974e-04,4.290511255311629107e-02,-3.521947847943990989e-02
-6.721678307272932820e-03,-1.777085627015362324e-02,-4.510389095399831155e-02
3.155292473803122250e-02,4.651310174081673549e-02,2.895526748748831862e-03
-5.117133424543963277e-02,-1.276892216534096861e-02,8.491025903140562991e-02
2.640526723007911164e-02,-9.824408982503643473e-02,-5.216939212763616919e-03
-1.893189769242294498e-02,3.691469086400004512e-02,4.607715628878618352e-02
3.535773451447411092e-02,-1.292042713054268425e-02,6.312802198960135169e-02
-5.087768596532395854e-02,5.604353387275270298e-02,-3.078440576025530742e-02
1.070240193642942317e-01,-4.068259789350649885e-02,-6.905403744327863469e-02
-4.968856532082367716e-02,-3.656254477208246978e-02,2.160481610338720049e-02
4.907887142781365564e-02,-4.063394755047969320e-02,4.398187216314944359e-02
5.278221058870010036e-03,9.969756666427632974e-02,-7.619747309490678539e-05
1.414836454698911172e-01,3.081190267844905600e-02,2.276859301923580756e-02
3.218794408632220938e-02,6.325680246069775858e-02,-2.979906753832091415e-02
-3.652570954499173572e-02,-1.532891368975914173e-02,1.139160891376894830e-01
1.428098685250944466e-01,4.721274898639973849e-02,-2.132045825588092802e-02
-5.142410445996336427e-02,-6.319167851845479411e-02,-3.033361681216918335e-02
3.160138251556186828e-02,-2.584247577605319410e-02,-8.021183920712199322e-02
-1.086404257380982341e-02,-7.811903152332737299e-02,4.748120692193519982e-02
5.245596806683956725e-02,-1.668862788566212799e-02,-3.023490453951859988e-02
1.364308126802918630e-01,1.203076532864928196e-02,5.131626485960306960e-02
-5.145151589684972965e-02,4.076313085400203040e-02,-6.218566600226958785e-02
6.458565804975556490e-02,-6.853145663242929397e-02,-5.846794879707095660e-02
8.804975431200573466e-02,3.864303663899929745e-03,-6.570272749434724613e-02
-2.445227705790697925e-02,-4.816094753953276478e-03,-7.989203998362276460e-02
1.184536138839557134e-01,2.474846115318053014e-02,1.602978726054684125e-02
-7.210750876107818730e-02,7.407558618435458597e-02,-1.430973051448817049e-02
3.686954225361391974e-02,9.838171933832604021e-02,-1.136378691184771195e-01
1.158624772001748795e-03,-6.574944826898651562e-02,1.983298456279340705e-02
2.034488049869005374e-02,-7.427711457518895721e-02,5.515178660848015640e-02
-2.705012109811040857e-02,-1.502976544051613100e-02,1.576257214914218371e-02
6.502036323776770599e-02,3.438441241095557127e-02,-6.576267060447597845e-02
-3.714026036337169517e-02,2.367001391632216414e-02,-9.797347540722442169e-03
-3.674072809311144244e-02,8.687692839083721585e-02,3.141417713654556798e-02
-4.336524744137480042e-02,-7.093276535865566945e-02,-1.378842202567862885e-01
4.973268100315993839e-02,1.950770882610770862e-02,1.094835253733817682e-01
5.293921313013529723e-02,4.490541427418734410e-02,-4.888662302463820525e-02
3.843056636988998603e-02,3.879275271121310209e-02,3.215579325779439890e-02
-3.238475957903852454e-02,7.098531514249955925e-03,-2.010916596381192092e-02
1.368432516355618314e-02,-1.263063526574824680e-01,1.144802192796567225e-02
-3.367663632764816145e-02,-1.708677810542041930e-02,-6.144037765374830290e-02
3.670587952107497772e-03,4.037663449761230011e-02,1.420305288895581663e-01
6.770830290546081542e-02,-1.632319006060010264e-02,2.371359215108745366e-02
8.689495065609736946e-02,1.662659774082388478e-02,-9.423611551149467525e-02
5.325655180860503629e-02,-8.827987702309937623e-02,-1.707150445099644975e-01
8.322644406837456654e-02,1.488111335668194750e-02,-6.337596250352285632e-02
-4.834862189408654226e-02,2.119181361367437899e-02,-1.116585269078049503e-01
1.840384583971840793e-02,1.515906994846347514e-02,-3.992692146802150066e-02
3.422387297704683473e-02,-1.223833036228304111e-01,1.111581667395153579e-02
3.860860163429775255e-02,-1.043181326860673913e-02,-4.797312199743754713e-04
6.458694755959955291e-02,-7.291083378198667808e-02,-7.526960558747036734e-02
4.682749053319383570e-02,3.483939147765723401e-03,-4.868253570936791064e-02
-5.529686483752343368e-02,-5.829127139933342611e-02,-2.998497360543291219e-04
-3.575607178509378203e-02,-3.275718634443993554e-02,-5.388784848285545909e-02
-6.552083181105371580e-04,7.200808329492401627e-02,-1.445315970836959785e-01
7.284231320248533981e-02,-9.764353917235386524e-03,1.004471546907132334e-01
8.443722865657678212e-02,-2.207806133160529830e-02,-9.368222247519107648e-02
-1.688972634775856227e-02,-3.795461004259773757e-02,3.327608570945760069e-02
-1.115416046045940024e-01,7.974682100731370071e-02,-2.335529279913733242e-02
-3.850888280433966099e-04,-7.812144366455886502e-02,2.120889534924199488e-02
-1.020663982393233728e-02,1.281876582302124250e-02,3.058128087943729964e-02
-4.644052266791155043e-02,-6.584819531228550127e-02,5.240805389404539633e-02
6.042060045560766757e-02,1.073736806130011837e-02,-1.140524276135096854e-01
7.933583242718633688e-02,-4.612035466517209331e-02,-4.402908794895122463e-03
3.088740656389264358e-02,1.974102580646194816e-02,1.514815982042954090e-01
9.427122381824587505e-02,4.866707144072950075e-02,7.555527831448957676e-02
7.137307639664809689e-02,-5.237229152541094529e-02,-7.867416170137942269e-03
7.464583348666564699e-02,2.983231119343170840e-02,8.477950558744798415e-02
3.787849056012024956e-02,-2.952717658198534059e-02,-2.939657113019796333e-02
2.994909807240678842e-03,-1.690913242725792728e-02,-5.615993636103588232e-02
-3.480315203116067513e-02,8.372580247540868659e-02,4.837975477936503309e-03
9.619731351830243526e-02,8.476215631981895426e-02,5.931506375700917183e-02
4.066253451373602612e-02,-5.234209477423716617e-02,-1.533638593951825065e-02
-3.296687822781793620e-02,4.090009167431645637e-02,-6.732393383471578507e-02
-7.705175328292905579e-02,-1.367005650467914210e-02,-1.992542742524852986e-02
4.069675922349345193e-02,1.008478265464346491e-02,-8.868352293806794351e-02
5.366914532307606733e-02,8.469993156664321066e-02,-1.984721481559914569e-02
3.176662092558973222e-02,5.522172420485108729e-02,8.421154184631071682e-02
-9.076633359583237415e-02,1.133329080649053515e-02,1.402397568371955422e-02
4.660562918406450233e-02,6.227875029688913211e-02,1.940212776247395021e-02
7.383298846958119555e-02,-1.062984942280120471e-01,-1.744160087004292814e-02
1.367588466927888375e-03,2.451775395336351290e-02,-9.999557706303776813e-03
5.899363441037927883e-03,7.163918205355867749e-03,2.460871484643115895e-03
-5.581341101863258186e-02,2.463440798151847466e-03,3.622152591995946719e-02
-1.552980115954023105e-02,4.459234962418798937e-02,-3.335165108934825401e-02
3.006073369930753469e-02,-7.451673460260589688e-02,-6.198218973350790029e-02
1.416431442217579162e-01,1.738955226787504416e-01,-7.227096290595660943e-02
5.165911696664047398e-02,6.289874932771015448e-02,-6.954237828233941765e-03
1.550288721433526126e-03,3.449353617605351724e-02,3.125597889774072574e-02
7.203292507598005323e-02,-1.561530339716792060e-02,-2.335931152855447515e-02
-4.857299024311459434e-02,-7.221418588205318068e-02,-3.514799067757321677e-02
-1.398416881523453607e-03,1.138367957436022763e-03,-1.041287254650624799e-01
3.851728643782285910e-02,2.483916720640155784e-02,-1.066214303693319154e-01
5.833109951527140624e-02,-1.302665799353489029e-01,4.744848884629453839e-02
2.440698414994883769e-03,5.163929273551042323e-03,-3.107573007539143894e-02
2.269300603509756195e-02,3.487570072479199978e-02,1.003437951757041313e-01
-3.127953592629996449e-02,-1.642375699262660707e-02,1.790833380196840338e-02
4.483296842665802917e-02,-6.465002616758384890e-02,-4.774678008651905142e-02
-2.822717377253458615e-02,-1.179638948759210992e-01,4.574795996165795242e-02
2.890023103965750489e-02,-3.106268869385265738e-03,-8.240178308220321574e-03
-5.124622339121714248e-02,-3.858105056087135498e-02,-8.372483086336064695e-02
1.246902339737676266e-02,-7.012751893668703329e-02,4.405780126368850913e-02
6.042375056025633788e-03,-2.996043199126492695e-02,-1.610866015597360590e-02
-1.857456705625127880e-01,9.113105231404783346e-02,-2.895466141415914060e-02
-8.810464714288411547e-02,-3.620377443784776605e-02,-2.777821620307769843e-02
-1.162142196762479783e-02,7.069202479912406467e-02,-5.910969106187652367e-02
5.309399545109487473e-02,-8.198898794299416815e-02,-7.179700901492793406e-03
4.036013105466606382e-02,2.345420653788032189e-02,-9.979430527064768464e-02
6.441948644194869789e-02,-6.992817329219641609e-02,4.586456244423577078e-02
-8.829722059834728409e-02,-3.614244457026216661e-02,-4.627530115220903489e-02
3.340618107019401040e-02,3.216951847214733623e-02,-4.062900650872621616e-02
-6.094743831049704436e-02,4.017505744125628858e-02,-1.825363771291880696e-02
3.669188466246565278e-02,-2.117570638495648583e-02,1.425907883859105565e-02
5.518392826052774536e-02,-3.944221279442411410e-02,1.667268842207756882e-02
4.749993615297316840e-02,5.562552189029822819e-02,-2.912429216192525053e-02
5.625732984367160655e-02,2.092740707689890248e-02,-9.622878281861493854e-02
1.425777461705634956e-02,-3.605647216143777894e-02,2.327655891318207697e-03
7.745629361089359510e-02,5.468367390895441035e-03,-1.829739222118507633e-02
-7.467352084184869510e-02,-5.428494129380059124e-02,7.750334485625971943e-03
3.688735872941590471e-02,5.288489771375945447e-02,8.796412205280382257e-02
2.954369032130174308e-02,-5.770327519331898414e-02,-1.226454834626689548e-02
1.026416068432169787e-01,2.330607193498525093e-03,-1.453032941817173490e-02
3.578657444846859714e-02,3.354029635356545191e-02,1.810297477522353248e-04
-1.146532882714715491e-02,-5.746346896811467542e-02,5.927115240427004855e-02
4.543152728807051122e-03,1.592293484586702196e-03,-3.074136309301184374e-03
1.950349900575730488e-02,-2.779574332499365474e-02,-1.522517682644168591e-01
8.859217189674509219e-02,-2.506458945230490357e-02,2.075585296702694288e-02
4.360996630100401339e-02,-9.752550013234329018e-02,1.414926365590711207e-02
8.060224750153566209e-02,-5.261945809014956926e-02,-1.770294753810284019e-02
4.424208517134476520e-03,-1.015787451078037362e-01,-2.302776843171792584e-02
9.004755557641673860e-03,1.949955502809226290e-02,1.163423074624075557e-02
3.350556647946592581e-02,5.692434920100395736e-03,6.624478116819947082e-02
-3.225275773005407964e-02,7.729050490539534669e-03,6.220980357755529627e-02
-1.046735992743030169e-02,-2.106698067258796006e-02,-4.711748620984483431e-03
-1.477664505484783397e-01,4.400245673026339198e-03,-4.024866724919923255e-02
5.411405608878035872e-02,2.310992054310152116e-02,1.513028714282707576e-01
2.971867106809372369e-02,-2.616419742444759181e-02,-4.052294119847441728e-02
-1.490871637650401649e-01,6.087337090856536487e-02,-6.303963832349055232e-03
-8.773518406018233906e-02,-5.596892896483796759e-02,-5.455598218683309353e-02
2.681732856459024400e-02,-7.264259689395415054e-02,-2.000084745082424467e-02
-1.410099566727268357e-03,2.166349509711229873e-02,2.605553557185705943e-02
5.648540147993613703e-02,7.882299721336008883e-03,-3.007477134468347635e-02
3.328504648208764627e-02,-3.457620790029845154e-02,-3.306656593439852299e-02
1.663516200825446200e-03,-6.282605169081122154e-02,-8.410187790540796238e-02
7.464747208880418913e-03,5.412507109901158048e-02,-5.232584599339125397e-02
5.879140073751099732e-02,1.881604962247056256e-01,-5.842142936925361074e-02
9.413530824516772380e-03,1.138389549425438893e-02,5.382700081403316017e-02
-6.104216155675315503e-02,-4.240864733921677343e-02,-4.912444891484839954e-02
-2.008698304378382302e-02,5.299458164074501154e-02,-4.280795752638885676e-02
4.456023015476600485e-02,7.059948875413595004e-02,1.606472407803065730e-02
1.314610412323806987e-01,5.963091022459882790e-02,-7.929159569487651341e-03
-3.877182342658354233e-03,-2.252804044540080569e-02,5.021729848028107235e-02
-4.515844963997420192e-02,4.616135888024368306e-02,-5.413365424158274319e-03
1.485502769613567531e-01,1.001947272765751906e-01,-6.785721279751875945e-02
-9.002515702083262183e-03,7.657820096610429284e-02,1.576817515314736171e-02
5.351479405837373388e-02,-2.014309219799129136e-02,-4.403041237498557525e-02
8.744428084734769124e-02,-5.359164672622697412e-02,-3.479291841007836616e-02
-6.930208810657519092e-02,4.268193877115152306e-04,8.387244586170618244e-02
-1.922980927207114388e-02,1.040244744970544311e-01,7.612271949655215197e-02
-6.474282950488975327e-03,6.629696601641708702e-03,-9.218635698426982938e-02
2.213422822113194494e-02,2.580280084661029302e-02,-5.974010260660173044e-02
6.151137248028210047e-02,2.414811501572502669e-02,-4.101586819165468911e-03
3.006352142247866246e-02,-4.322888556072992938e-02,1.592875435226011327e-01
1.983495518099334665e-02,-7.306785211679751868e-02,2.853830644662664132e-02
1.101312083040219270e-02,-6.759709672781484546e-02,5.046568974619135284e-02
5.006550703433242100e-02,6.244489921261496546e-02,5.774859764602637002e-02
-8.354178566381302573e-02,-7.296957133476114632e-02,-4.674026198577072022e-02
1.784769746265797014e-02,1.742976153678369583e-02,1.040518861365349323e-01
3.587854883137771983e-02,-1.500290728426584286e-01,3.495533263950106190e-02
-8.945779954942764678e-02,-1.109666299609654919e-02,3.656987955159810011e-02
1.448154105849208118e-01,-4.340874069653702719e-03,3.553172788838138141e-02
-3.105579525685654013e-02,-1.647137213892980664e-02,1.083608611886960685e-02
2.747645476354174804e-02,-1.766483398874337252e-01,8.497631401100366744e-02
2.593593200047089944e-02,-1.396639809395590695e-02,2.313541604105967195e-02
8.803149188553151261e-02,-2.229681452541138961e-02,-5.806591402261548560e-03
5.452831833811224924e-03,7.560758964403646587e-02,2.098190185878541156e-02
-1.683141034047277648e-02,2.412030447856554002e-02,2.609725883717947323e-02
5.480076215226122038e-02,-2.098838751956179360e-02,4.242267124240894915e-02
-1.676516456729271187e-02,-5.527579965059324640e-02,2.543151990763489051e-02
-3.498950354410097774e-02,-6.518760468162797250e-02,-3.098822083414008114e-03
2.595366146007838104e-02,3.361827606555912312e-02,4.885923897208129668e-02
1.095180261854311263e-02,1.388518797209126014e-02,-3.774734566791237977e-02
-2.302966210831044677e-02,-1.675545276480683299e-02,4.896394468846666098e-02
-1.250975008748803075e-01,-2.987715358792228729e-02,1.786105710425698115e-02
7.109978287282586740e-02,1.770419310440541141e-02,-5.266762664524393678e-02
-3.128100254977423528e-02,-7.449797562279526775e-02,-1.316736907356609414e-02
-1.133045105729223734e-01,-2.201084393416810961e-02,-1.204927570835167827e-01
5.880264745742467191e-04,-6.637017130557708311e-02,5.238022494987704114e-02
4.646398273253615069e-02,2.196143434550424864e-02,-1.063304099898537830e-01
-2.814252050095219018e-02,-1.033872159723678817e-02,5.171572340336177270e-02
1.314601201816822419e-02,1.313472721881097510e-02,-1.129284620961755053e-01
1.165539964083073809e-01,3.401223492347933697e-02,-2.769907248060184471e-02
2.831301387278007189e-02,-3.232305666019893303e-03,2.002484465067528793e-02
1.191546946190960299e-01,-1.592787939516956963e-02,-9.500985004100367948e-02
7.431328214543093946e-02,-2.200270377435425626e-02,-5.068018397789356838e-02
3.345839873505204037e-02,3.064328757449208754e-02,7.091593408644626673e-02
-1.148709187098460455e-01,-6.821778456641777906e-03,4.996521012044736337e-02
1.173361990268218316e-02,-4.443183016333442092e-02,-1.204493572105270749e-01
-2.235360045022156267e-02,-1.647720258965443274e-02,6.616086741042349895e-02
7.021033127347434989e-03,-1.532543562404100994e-02,7.646838041452755363e-02
2.910548925728735289e-02,8.889242907809707939e-02,6.084182484876818342e-02
-5.581501548767323073e-02,3.101658357289860043e-02,-7.078505414936268891e-02
-9.384117713776624070e-02,-1.421599030770668952e-02,-2.206170088462081902e-01
7.564951388223825623e-02,3.503216300974561909e-02,4.152189111552916090e-02
-4.071129564335116552e-02,4.221526700020669653e-03,4.863719037903622977e-02
1.766748283359933711e-02,7.554348393813430096e-02,5.639192670200401936e-02
6.803690878338708448e-02,-5.232128769962040432e-02,-1.508640602256573759e-02
-8.298674319340825292e-03,6.776061139743765060e-02,-1.086575900725494925e-02
2.558200140378179277e-02,-3.252375098874861481e-02,-1.014571954450417812e-01
6.953278151415252795e-02,6.624602729776685184e-02,4.258038714732421265e-02
-2.360861570362003323e-02,2.756659454147526722e-02,6.220330312989238303e-02
2.431439771093343166e-02,-7.738779458859339211e-02,5.414572935182028479e-02
6.276494922792201893e-04,4.048804824560203741e-02,4.826506214802856604e-02
-3.125528521541989097e-02,4.351206776422661404e-02,-7.751852191627470016e-03
1.938953463397579888e-02,7.131995043506016152e-02,8.841004303207233850e-02
-7.500655505281438040e-02,4.874475745977278202e-02,9.687622685039809500e-02
-2.644907533712591644e-03,-6.312170398334782107e-02,4.953725424272728550e-02
-5.869489296786246924e-03,-4.593289862264166024e-02,-2.355840881853613761e-02
-1.372358732239324468e-02,-2.162183127678441244e-02,3.654181411761598525e-02
-3.186059104827061728e-02,-8.575839128781963250e-02,3.555679620494389768e-03
-7.571220391262734051e-02,3.550321426178446038e-02,2.533459296059603974e-02
1.235584880491196885e-01,1.099960878788631274e-02,-5.095067290675392435e-02
-2.185552668016887620e-02,2.664375585891650203e-02,-9.487776957213003848e-02
5.693007310018822174e-03,2.141271696293511884e-02,6.503164208495894327e-02
7.708171795553660222e-02,-4.623685617965726108e-02,4.699401471113456158e-03
-4.957149697322314058e-02,3.757190327872350633e-02,-2.042046109692053843e-02
-2.522863520517490063e-02,4.104067321893600621e-03,-2.462860450430753509e-02
-2.445379572062591489e-01,7.216795082568651376e-02,-1.354429552585118268e-01
-1.237066484337259742e-02,4.920441717306519441e-02,-3.030640595002283798e-03
6.793160314643145736e-02,8.625658410077861882e-03,3.437745866963940605e-02
1.316255657854406846e-01,5.547725710933115728e-02,-5.705955655304049273e-02
3.667938330204861125e-02,-1.399677440572590637e-01,2.850975520605372737e-02
-8.225295088424806889e-02,6.683797386607620572e-02,-1.054813103293754384e-01
-2.174117302164659329e-02,-6.661298338555014797e-02,-3.407784620152880944e-02
8.818393086429159033e-02,-8.195703898220819961e-02,5.974250856884189692e-02
1.116063753561371934e-02,3.565812199752919909e-02,-9.985201354161751808e-02
-4.541696854450254228e-02,-1.113627923038870704e-02,-3.261885567762723426e-02
1.826792354659736517e-03,-1.081454866307826751e-01,-3.544696813130271407e-02
-5.366571082818631655e-02,1.359929171246773011e-02,6.617460782345085946e-02
4.854397509574525510e-02,-2.202180749901135309e-03,-3.316032024101278619e-02
-1.278341098188988520e-03,-1.700889369041211005e-02,-1.092021322603706429e-03
4.537449156427540709e-02,3.669381549632080852e-02,-2.442103484278219591e-02
9.750707618281988925e-03,-4.582187582443103015e-03,2.863162687326837198e-03
-1.362780182661453045e-02,-5.925815704511549348e-02,-1.170002145760492829e-01
-6.219497188609385274e-02,9.571754366763911151e-04,-9.867546443493616093e-02
-3.033599282745733094e-02,1.260808900632018857e-02,5.675596291511549735e-02
1.656127128215610644e-02,2.362402923783959649e-02,-2.803848562770934125e-02
1.797989632788343090e-02,1.376002493744610602e-02,-1.166654610081089838e-01
1.698190329045665484e-02,6.193839298832685275e-02,-7.024589255773590335e-02
2.165022283099264991e-02,-1.354163205934850456e-01,-2.904102396560427971e-02
-1.554741223403173223e-01,-2.350010586487433304e-03,-5.909052497703478485e-02
2.350566143208023331e-02,-5.357950341562339042e-02,-3.830527276466619800e-03
1.412136574925008589e-02,6.498352942267311694e-02,2.312197373259736871e-02
-1.131113480240604485e-02,-9.972743766953195976e-02,-2.976847483465227748e-02
5.339763554339470308e-02,1.135838724757194489e-02,-6.545942347919357640e-02
5.043734641532579555e-02,6.180462629315577189e-02,1.878594796842399453e-02
-1.285353160199838481e-02,-1.031402938122482141e-02,-7.555290910234953305e-02
-8.006919405621383545e-02,3.837586566618553241e-02,-8.519653598744944545e-02
-1.087823821813638063e-02,2.244752041107758028e-02,-2.703275152549777446e-02
7.845177911022316666e-03,6.144846957939781307e-02,-8.808971280120231340e-02
-4.896314699774167133e-03,-1.436708033045012434e-01,2.098245074496457932e-02
1.427160023748492643e-02,4.282538411278501156e-02,-4.678790885979288577e-02
-2.386259692516642505e-03,-5.868361111663904228e-02,2.142775458642316722e-02
1.127460490820782202e-02,-2.875535011182299774e-02,4.676442940064969717e-02
-2.917016937377896191e-02,-5.924195840095537735e-02,5.952260920001152533e-02
-3.350805778744334745e-02,6.020487566309539601e-02,-3.903735265546101618e-02
-6.806907083505213396e-02,-1.112854135565435757e-03,-9.943547521124769528e-02
-4.939563098004013525e-02,-2.329655668841829411e-02,-1.160744549471702386e-01
1.400148080759306551e-02,-7.797811380248717561e-02,-4.891075550239999681e-02
2.775569243418418361e-02,1.001277528022907898e-01,-2.415024161607291081e-02
8.809873400557011180e-02,-5.278164094448148380e-02,4.323306072653417681e-02
1.363098881711397314e-01,-5.756580697999281321e-02,-3.458121703030001687e-02
3.107035432429399585e-02,3.097126844640255353e-02,3.081721430304994527e-02
-7.997022616465790379e-02,-1.271507840339107000e-02,8.217859509043784483e-02
-3.605186039315973201e-02,5.682275549293847733e-02,-3.833707876993580621e-02
-1.010497677660204992e-02,4.907856639671447085e-02,-2.972969346209674082e-02
-5.225744438773550354e-02,2.418769914691907587e-03,1.051210800561463571e-01
-1.963071876395852677e-02,3.668837531473648911e-02,-3.706836683786324943e-02
3.106687342076377284e-02,7.568583958520404276e-02,-7.801494979750774050e-02
-3.045089078891716206e-02,3.946134243747814047e-02,2.213995785383820677e-02
1.419017604726184878e-01,3.003947493872137844e-02,6.720642602705782787e-02
-1.593866881471408398e-02,4.222051886996719232e-04,1.246617346095385201e-02
6.209830289927555785e-02,-5.513153008630101645e-03,4.282066126362739367e-02
8.675711308067543537e-02,2.478754681539237226e-02,-9.421305441121145818e-02
3.643978121786276003e-02,2.589310785013294175e-02,-1.064224807031170228e-01
5.626947237435177968e-02,6.047043565663445808e-02,2.596884236697451220e-02
-1.835630054246979725e-02,-9.071303480738293623e-02,6.174079504269311056e-03
1.019683927121731865e-01,1.896662234292482638e-02,-4.317757953811054636e-03
-1.182893169614104428e-01,3.814405803280514901e-02,-3.600926613594201270e-02
-1.219689581683555679e-01,1.153498269096083634e-01,1.196423983533911883e-01
-3.634979788587548721e-02,-9.296557314914455361e-02,5.670343816810271415e-02
-2.370556804274943224e-02,6.418030704239080508e-02,-1.008128856218026004e-01
-8.691831375450137509e-02,-8.068420539610136888e-02,4.084946488060612474e-02
-2.779597535525180421e-02,6.340181933221646082e-02,7.220570291641200712e-03
7.473943044940944969e-02,-8.466305263107769263e-02,3.345286120473883046e-02
2.228682161583931537e-02,2.561393132363182917e-02,-8.296849772939925149e-02
3.107564397839905970e-02,-5.315433938132010927e-02,4.252020601967165109e-02
-2.132451820014609478e-02,-6.581626289606896940e-02,-8.332639867022871571e-02
-9.666303178349019585e-04,2.946692374421274949e-02,-1.322080200445409637e-01
-1.341554975335057000e-02,-1.797505278127163944e-02,5.586816490693499726e-02
4.368111041761369578e-03,5.093453036045323540e-02,9.134180579448736292e-02
-6.473161612505093365e-02,7.861924595671305636e-04,5.900456638139318921e-02
2.125947048444818896e-02,-6.053336208907577481e-02,-8.048267561854152707e-02
-4.332410632805748507e-02,1.368347036486919702e-02,3.687502608568986318e-02
3.468012983678963462e-02,-3.175854582637407247e-02,5.431575674450437458e-03
6.354002886028872754e-02,9.710994144438026346e-03,1.156364902190702149e-01
-6.187530192920608768e-02,-1.077850600772172207e-01,5.798727372761620924e-02
-5.200059293297658314e-02,6.968846030293070030e-03,3.893618603548085200e-02
5.509708334682512226e-02,-3.196113940587464591e-02,-5.577262419623619377e-02
-3.340988929790057044e-02,1.142621115766234013e-01,2.918855050785431129e-02
2.568368989264003394e-02,3.400235245033088327e-02,1.038868420899841799e-02
-8.648954619434824631e-02,6.129686910106970504e-02,1.945127718617646606e-02
1.277957321275196255e-02,-1.537191586322476100e-01,1.249285652761805872e-02
2.329876115013580426e-02,1.082864634263126270e-02,7.373343510639099666e-03
-1.051283395459543836e-02,7.235825482075108894e-02,-4.317520168056101365e-02
-2.937376854419562061e-02,5.225487229199318739e-02,-8.714552857510118877e-02
-1.431543677990079755e-01,4.526578248922297210e-02,7.228034588040554553e-04
-1.885579550466025918e-03,2.591679717906439015e-02,7.568654658251047773e-02
8.408997518500632706e-03,6.933658554773647689e-03,-2.508338855588426036e-02
3.702493906350494413e-02,1.575641685460301700e-01,7.346103457119280977e-02
3.072130686716768866e-02,3.218171370806083287e-02,6.207417376010406634e-02
-6.375450316613154918e-04,1.371553096910305691e-01,-5.131375583338546736e-02
7.863107292613551180e-02,-3.173026970015242754e-02,7.295723319107523530e-02
-9.688314425048542844e-02,-5.335482288875253998e-02,6.827855978740090571e-03
-2.746386293689873428e-02,-8.816347562264900684e-02,5.358148626124498853e-02
-8.951904837747945778e-03,-1.790825420004628701e-02,5.563981725168603079e-03
1.006478989763443140e-02,-3.268319150307754956e-03,-5.366619143382055784e-02
-1.042588217403888629e-01,8.931987485871521748e-02,1.446916611979001330e-02
-4.323533675974747248e-02,-1.556335640685016786e-01,-1.306577048875699407e-02
-9.581027733946340108e-02,6.831446289368187097e-02,3.825330577505594437e-02
-1.156803804645901469e-02,-4.003373364320737121e-02,-2.382360029289117345e-02
-7.371981459957489824e-02,6.708955906555971738e-02,-4.594163294613609616e-02
-9.391059847224357549e-02,-3.407864209931656813e-02,-1.145364744974769339e-01
2.248338960373456874e-02,1.893920886809047702e-02,-2.149862817247651450e-02
-5.794469814480736336e-02,-1.641010346542105119e-02,8.926437486481929307e-02
-2.303494732067442458e-02,2.796476716439306662e-02,9.212932715256610949e-02
-4.881980518916130551e-02,-1.650218974794913709e-02,-5.248827129616433218e-02
3.077306702268222185e-02,-3.284690630706914999e-02,3.462579960656020361e-02
-6.821900977498387975e-02,8.624066600197650978e-02,-1.166307097330085696e-01
-1.129125998693417988e-02,-9.159915091585117686e-02,-3.097697052081672953e-02
-4.870737421458026795e-02,1.510971455864105160e-02,2.976802571423582677e-02
-4.668641805817148188e-02,-1.381834237686422329e-01,3.872508213665941043e-03
7.741951803549410038e-02,2.095034929112392016e-02,-3.676329436154084779e-02
-9.174379118437461095e-03,3.501696371949917369e-02,5.616824241501663928e-02
-5.730450214448725918e-03,-9.289088259380109958e-02,-9.211309152102380160e-02
5.197107584180089140e-02,1.028252987473643465e-01,6.628449499237789580e-04
-4.599968833041644112e-02,1.386047077691242128e-02,-3.675323786434246155e-03
-9.712346397499978246e-02,7.128923535223996577e-02,2.804317964670638083e-02
4.005530558367955546e-02,-8.515011086590031433e-03,1.537781327607409265e-01
1.711067854276222128e-02,6.854119393025066842e-02,-4.630901297967188017e-03
-3.889072687205147316e-02,2.057617442751169187e-02,6.175437261741467676e-02
3.275511687425199103e-02,-4.693994133744735370e-02,8.700317994190430448e-03
-4.030276647137594898e-02,2.040064801816647566e-02,-1.134692659972454630e-02
-7.521117095555518439e-02,8.001746540958007414e-02,-1.161783961460115082e-02
-4.858362054728298379e-02,-1.069781230282181375e-02,7.813230625292398590e-02
8.560185961238896135e-02,7.345324983910122077e-03,-1.105710744229346093e-01
1.591972752460730708e-02,-6.042734910119671593e-02,5.773932489172034499e-02
7.792422502766395420e-02,-7.466230790767038050e-02,6.089138103218806608e-02
-1.113829429934726639e-01,-5.050041073780378587e-02,-1.231673873411895936e-01
-6.299013587911669876e-02,-2.452648224905332533e-02,4.201600108499770059e-02
-9.977966162831033992e-02,7.954659025866479827e-02,-7.483997076668623405e-02
2.526761872613183732e-02,-6.579750921950290599e-02,7.042940657621138412e-02
-1.229014792182558519e-01,4.118097097201360579e-02,-1.147351130899720018e-01
1.008573103343462923e-01,-5.090543726085278858e-02,6.478615103963937527e-02
8.373813047618372529e-02,1.033990435306438305e-01,-2.030197330218002846e-02
1.328429241682005206e-02,7.380096549848770733e-03,8.217240131400095626e-02
8.856251604084593859e-03,-2.538781556319441926e-02,3.498333129350524821e-03
1.955407667266470181e-02,-5.140096725249268007e-03,-3.232756821337900294e-02
-1.273037027019759682e-01,-3.816276895288122500e-02,2.329124283209084781e-02
2.295887413657961978e-02,7.229096020887788854e-04,5.942308552230050889e-02
-6.496030265645913460e-02,-3.648049596052640314e-02,4.162898049139292234e-02
5.368828998076992376e-02,2.895313165225994051e-02,-2.415972507363866803e-02
2.888674517238994446e-02,-1.050650563587498809e-01,9.774728199737213463e-02
8.647044685033324074e-02,1.352275800268040425e-03,-1.009262624913869096e-02
8.298838468389971301e-02,-5.722202956838252919e-02,-6.949496715876871990e-04
-3.498903001345603139e-03,2.011745354466541041e-02,-1.083690792369387396e-01
-1.284240749664727899e-02,-1.249067609504263786e-02,3.135891541508877695e-02
-7.760106232127268744e-02,-5.445123098340043377e-02,5.454778234522739827e-02
5.637057593674923983e-02,-5.409733332786047233e-02,1.498792728177751610e-01
-5.208321947270293933e-02,3.083117474260444607e-02,6.405591633412532904e-02
-1.074300357187248436e-02,-5.088759974326558660e-02,-7.151004571022849532e-02
9.778407434969958734e-02,2.287433036345821666e-02,6.636505692302918646e-02
-6.468737878034204816e-03,7.430611514176649335e-02,-2.062578005065485859e-02
7.288893025238663004e-03,-1.898679427618162399e-02,-1.193236878360507541e-02
-8.625429528440438365e-02,7.440891005234633038e-02,-6.819948601089856344e-02
1.535915662675547966e-02,-2.294653886089772707e-02,5.961283899490413957e-02
-3.545832877131992883e-02,-6.421367701237792880e-02,-5.659749893287712580e-02
-3.116542076004858927e-02,6.071683268027572820e-03,3.519526965507766003e-02
-1.117537569943440577e-02,-3.820937280492493759e-02,-4.053885349166205104e-02
-7.091078303084089041e-02,7.222266529036197591e-02,-2.786403198889765218e-02
2.764680224347650789e-02,-6.115704999762167776e-02,2.427516932698750574e-02
9.271818619497283753e-02,-1.008962928735667114e-03,5.105752293322896734e-02
9.665224161180500928e-02,5.812760527587908232e-02,-1.031782223827561705e-02
1.106883397515381756e-01,1.150620183734781497e-02,9.813323847071316400e-03
-7.120301356339160323e-03,-5.887369707448779355e-02,4.419924383598180379e-02
-1.031692433568000972e-01,-3.703175476722014164e-02,2.854746707678130005e-02
3.096328224730037978e-02,6.627035337838355078e-02,-5.228091558399163702e-02
-1.398255342070418572e-01,-1.385762319424468647e-01,1.120363102739917321e-01
-1.131658244974644706e-01,2.659006971479232692e-02,4.339202327045138530e-02
-1.107213910151671477e-01,-5.656737113607494295e-04,6.113485816477946810e-02
-2.310875904640418907e-02,-4.693158599827736838e-02,4.623361342415278213e-02
-5.170763196968228975e-02,-5.801550497468414835e-02,7.268387899483834402e-02
9.613551501298868429e-02,-5.728647492302978150e-02,-1.241497937611168723e-01
1.318505438541766467e-02,-3.840247922064376346e-02,6.052503619391210289e-04
-3.854708959953708630e-02,5.422168310458883728e-02,6.983726732117150060e-02
-9.870074695012602539e-02,-3.023647502836994058e-02,-9.004383359599656134e-02
3.205685376535538644e-02,-3.223507966936051822e-02,-6.922693222607240182e-02
-1.769255871135085034e-01,2.865467681392799490e-02,2.852276544281344417e-02
-8.697478923714410670e-02,5.777057497922612195e-02,7.509835345179413646e-02
-4.491771625262768602e-02,-3.494067843407726998e-02,2.172621475704369573e-03
3.262769028991129722e-02,3.339053977759740173e-03,-5.300391047328296967e-02
4.327398845552550555e-02,2.839885433099925000e-02,3.075244803414345710e-02
1.407045973006090973e-02,2.782584585046789932e-02,-4.333317609376880625e-02
8.566789854404947835e-02,4.016645832566682200e-02,-7.129697943596265131e-02
-3.086211092285529728e-02,-6.762081909878936599e-03,-4.819455618666666080e-02
-1.848002699242806690e-02,6.326550084152572292e-03,-1.213650287113737618e-02
-8.826131817392625367e-02,-9.452674481700901188e-02,4.484041390862555237e-02
6.489678380967439653e-02,-4.124142121732920357e-02,-4.510404326534819819e-02
9.962153114809615961e-02,2.297780185702450254e-02,1.026841928872562586e-02
8.203534521460520423e-02,4.999961691346008902e-02,-3.215398038669759623e-03
4.425140403583791709e-02,4.998059294178106016e-02,4.444333672525036666e-02
-5.477654199085321002e-02,5.507665586014067610e-02,1.032574356828372120e-01
-3.351063175163748048e-02,3.576630485321007080e-02,-2.346111957755178667e-02
2.562050091857135878e-02,-4.848044805481839352e-03,5.086701764990031460e-02
-4.960569414279091677e-02,-2.744358578244526781e-02,-5.671559034596327514e-02
1.662158894788074229e-02,-3.265376824866108446e-02,-8.186076104900512351e-02
7.092148789443777912e-02,5.800606272998943408e-02,9.761011982480637117e-02
1.125833455078268375e-01,-6.015832416199415333e-02,-2.769166440938701165e-02
-9.078181112540805939e-03,6.362854704058569510e-02,3.514340058144396761e-02
3.296300068849588455e-02,-9.118518040851236392e-03,-4.842930756381589458e-02
1.396843883461417468e-01,-2.027644791773102959e-02,1.612202408429518410e-02
4.227704689087546236e-02,1.392127123743718276e-01,-1.012503173728243784e-02
-1.532240247487765827e-01,2.681573961460956973e-02,-2.337866000884357073e-02
1.916394166145449218e-02,-2.509868185726258499e-02,5.791565144552238836e-02
3.702295774732096423e-02,-1.237752763130339495e-01,9.611620017452485176e-03
6.282927315270339652e-02,-1.893650635595454587e-02,-7.016726948464070343e-03
-8.205330621463831353e-02,-2.898221679454360961e-02,3.260755606620749369e-02
-1.139454064988820042e-02,4.391700490656390982e-02,1.589209681580367253e-02
-1.150147550338901925e-01,4.153441239772627872e-03,5.017237165323800568e-02
-5.649985341539132816e-02,9.279632204596995060e-02,2.475250388546811411e-02
1.723482865878205733e-02,2.700616815400387616e-02,-5.950572014527589527e-04
2.017996902420673977e-02,9.650256365500788081e-02,-9.349253143320718218e-03
-6.176984494957877408e-02,9.456385842059440716e-02,-9.378617158860597536e-04
1.043958993856448497e-01,4.371233138712474903e-02,4.092519758592480517e-02
-6.071297735183439626e-02,6.722817142188058925e-02,5.118945374866969156e-02
3.947823981566189744e-02,2.369349668032120007e-02,-9.842854570419722060e-02
-2.528894250317045497e-02,8.558180489019708015e-02,4.352408754427069745e-03
8.676138772276248412e-02,-6.335857327863010646e-02,-5.857898408115431305e-02
2.474417373975697568e-02,-3.307769551284395204e-02,6.560794224407725042e-03
-1.614384913161987997e-02,1.101297953406055324e-01,3.793476837273809105e-02
1.060444417168837222e-01,-5.104900963366446054e-02,-8.525978156534140540e-02
1.695951931827943335e-02,-5.591343936746246551e-02,-2.832033164019425071e-03
-5.894997532888211073e-02,-4.537822808468407187e-02,-1.308864535528417999e-02
-3.249373772084310913e-02,4.832513533677571665e-02,-5.836614895632988992e-02
-4.217099711619669289e-02,6.254141041107887100e-02,-7.125754459283349662e-02
-2.445960111667440026e-02,3.631661769452514815e-02,-4.823787003327235923e-02
-2.246450393800204087e-02,1.135719392548626382e-02,-8.285548709637351704e-04
3.968960526432791132e-03,-6.819402652781711427e-02,5.723918258763352473e-02
-3.306152329650045157e-02,2.070726310598146672e-02,-6.428098275819835866e-03
-2.792445178184030374e-02,1.288450423655949362e-01,5.921476218629135452e-02
-6.022505357103527523e-02,9.178750684603047272e-03,3.721592149496642625e-03
-9.361038259794876928e-03,-9.978763843308072548e-03,7.350403121911126521e-04
-5.903820768621219350e-02,-1.077766280477075343e-03,-1.160948511989210452e-01
-4.167051168711400602e-04,1.101544664659092065e-01,5.341597609153021786e-02
3.630066178998211240e-02,-1.134958414570732751e-02,7.111568249806426989e-02
1.750811902420263202e-02,-7.151362342199399369e-02,-6.004766506347647415e-02
2.517417617596845805e-02,-1.660452202037579483e-01,-8.952755821906692446e-02
-1.255691387343908783e-01,-6.118030562329806327e-02,-2.817710500196784346e-02
-4.371038603319957194e-03,1.279166965454274323e-02,1.787339003500429402e-02
2.642461325998591085e-02,3.359971690837947750e-02,-4.805578599452522276e-02
-1.692544900220507159e-02,3.340825142147561821e-02,7.360851034929842551e-02
-2.491484604025884578e-02,2.715686194427271993e-02,-3.399867681632249422e-02
4.731574066683733731e-02,6.841900732055103407e-02,2.433947199490993363e-02
2.557107259112720993e-02,-1.085259836694607988e-01,-1.544207748563123928e-01
1.832627070339162834e-02,-3.086040157097654987e-02,2.784605449476675043e-02
4.349309532881357604e-02,2.082903277350811252e-02,4.423247974903265697e-03
-4.448734783152302752e-02,-2.776779656878317851e-03,-7.602132642934872342e-02
2.469962609509038579e-02,-1.988651921891417332e-02,-2.042092543695365678e-02
1.029686328274091178e-01,-1.415621886048710511e-02,-2.594410699429526568e-02
1.216222431530278453e-01,1.815907816605398517e-02,9.850544562291422765e-03
1.766497321194070713e-01,-1.197826257928170934e-01,1.623307591160918877e-03
-4.143391341704945330e-02,-4.173507683880474384e-02,-4.606931222488127448e-02
4.479163657951316935e-02,-1.329431750002403232e-04,-2.505466857476024850e-02
2.718136686231167193e-02,-3.109765078250764647e-02,-3.661876742551310737e-02
-3.351107047025194546e-02,2.512668172226796906e-02,3.333536905149447893e-02
2.292660490887599503e-02,1.805438705438377339e-02,1.298151514861268195e-02
3.470245916292019617e-02,9.752727865713750610e-02,-3.396162644354974031e-02
3.798532172650346400e-02,-1.071533502551370864e-01,-1.136682678099377314e-01
4.676416768971625171e-02,4.530091495426580295e-02,-4.917531225038334480e-02
1.657691137996591957e-02,-6.257655567123938077e-03,-4.277459875683247564e-02
5.221910843435609989e-02,5.746245772515224531e-02,-9.690772477299219520e-03
-6.761697728091364823e-02,4.887372697806295629e-02,-2.204324151232396611e-02
9.209568399222159418e-02,7.030839513255184026e-02,1.808446308920233850e-02
-6.774962721987638770e-02,9.898827091176447268e-02,-3.527219208368794628e-02
-3.493328806116279689e-02,-4.895136248183365457e-02,2.216465232025855922e-03
-6.805195816560861977e-02,-6.046989283669272630e-02,1.919387070575483134e-02
-8.386666563422767728e-02,-9.521176371982016662e-02,-2.908719697084302322e-02
4.585927044970873438e-03,7.556878010054655925e-02,-3.428279147137733296e-02
-4.846488435419744195e-02,2.730661349597194101e-02,4.244498899453056501e-03
-4.288667493624222227e-02,3.837096432461734735e-02,2.789808622211958217e-02
-5.444317949671047957e-02,-7.917851283390488215e-03,8.019818737697409494e-02
-7.008388832482773112e-02,-3.087487544404411005e-02,-2.250070445834604152e-02
5.663360941692106160e-02,-1.350256158514832050e-01,-1.061755918095326143e-02
-2.473628198636954392e-02,2.873359471633155082e-02,-1.302623852653698316e-02
-4.463985443253016411e-02,-7.186341916465768462e-03,-1.118182217077738627e-01
-8.372783440118207465e-02,1.190328493703994052e-02,-1.260095036900639280e-02
-1.677894303698316408e-02,1.027159702242443073e-01,7.230724219485047677e-02
-8.002888595211518630e-02,-2.658439490977713981e-02,-6.872948580631708937e-02
-6.145718885543869497e-02,9.715124198083929796e-03,-9.725224956840411439e-02
3.332569496665659103e-02,-1.872976455850407229e-02,-1.171996474731091392e-02
1.042785179102263121e-01,8.518427972527366221e-03,2.958717705972828058e-02
-7.241488560816054798e-02,8.208102744934418771e-02,4.221208471409045038e-02
-1.261536542905832003e-02,-9.494060702612079627e-02,-1.088033302653855505e-02
-2.587201636861289136e-02,-3.456284224466241173e-02,8.212742909699699556e-03
1.169169226241399510e-02,4.125201894402472091e-02,-4.607913947811430322e-02
4.103231854395156947e-02,-1.527199174794331982e-01,-3.226704471793679502e-02
2.876958830332769501e-02,5.207718411482850640e-02,2.640167195276682099e-03
6.317561883175353346e-03,-3.086585003167586355e-02,-6.236618464517017929e-02
1.109991657464925487e-02,1.807320065925690361e-02,7.596870796073640353e-02
1.910212712566419085e-02,-4.893365552288050924e-02,5.800509136818896710e-02
-2.857044331399120549e-02,7.300187195397857265e-02,6.096175431908600756e-02
8.776006722648270475e-02,4.805882258206604918e-02,-8.697421284213957549e-02
-5.114153474980000225e-02,5.637295892393112684e-02,5.012683694367744969e-02
2.907694990762624623e-02,-3.635784465654187496e-03,-9.847746573625844324e-02
6.911515160574521754e-02,2.034830936931444553e-02,3.448960263918935537e-02
-6.981841686836868545e-03,4.118386928318177459e-02,-1.268648006044767185e-01
-5.532770681124664358e-02,6.611342640317168298e-03,-3.823891474088214615e-02
-8.902548473046541233e-02,5.648289756708288478e-02,-8.795795714449350378e-02
-1.235386525166014687e-01,-6.372355435906672250e-02,5.399140559751555019e-02
-2.491036885087256209e-02,4.094098514144333539e-02,6.613603311511224991e-02
-7.689414443516628950e-02,2.989699997808097434e-02,-5.259437203608550299e-02
8.358043812238009906e-02,-2.939436945891563818e-02,-1.697567139627522217e-02
-6.502221492597692887e-02,-7.906943469002518723e-03,-4.128480987904788180e-02
-1.184334180412878815e-02,-1.981919284048721131e-03,1.339683515026642534e-02
-6.186343673002065932e-03,-1.436780985484969186e-01,9.222882727427420338e-03
1.039518244017623577e-01,-5.293182936532821875e-02,2.700033451438046961e-02
-1.964777970406027252e-02,-4.514847670950205422e-02,6.840684688312382439e-03
8.149455769659263993e-02,2.315924340813986862e-02,-7.087522822975041159e-02
-6.961748940495050830e-02,4.082979318276205860e-02,-4.268967699216742046e-02
-8.047325995219936634e-02,-4.501171344342748404e-02,1.029914165400229800e-02
2.258033011479866278e-02,-1.667480680366465601e-02,1.030164212382295719e-01
-3.685261134239953273e-02,9.575757749690447240e-02,8.713635459197520416e-02
-2.631677268494348257e-02,-7.358846875054451259e-03,4.668089847008820292e-02
-3.124716930523923838e-02,-6.059841935836722537e-02,-1.159967422894707667e-01
3.791713433040715120e-02,3.751437516831374053e-02,-5.246446593814637488e-02
-1.779860141754175187e-02,9.134400343129504829e-02,9.373759123805796081e-03
-1.572475031112662361e-02,7.936249940498837918e-02,-8.250814101473758627e-03
-2.944664823965725473e-02,1.040751160187367574e-01,2.258332939120017910e-02
7.543065173864932360e-02,1.969203089332885459e-02,7.020067773580473958e-02
8.928730160161769958e-02,-6.888669414196969820e-02,-7.046094253514188777e-02
-8.342365748891057697e-03,1.126328305300934862e-01,-1.134762099467535590e-01
6.554245252470007610e-02,-1.189243126009565388e-01,1.030357530749938383e-01
1.980108105011493119e-02,2.395675188515114865e-02,1.312322618353094217e-02
-8.584039940425075565e-02,-1.781046151996436289e-02,9.671687193463033780e-03
-9.203486748996918265e-02,-3.883059360209119293e-02,-4.746391225883511006e-02
7.424289149907142837e-02,4.693086783781245941e-02,1.179977404120031298e-01
-2.813711989247928702e-02,2.754275364385930756e-03,-7.472066634211230185e-02
-1.553934800587981613e-01,-8.255923368367275306e-02,-1.050776603568232132e-01
-5.236782825845892608e-02,-7.911544816757794252e-02,1.559546862010100475e-02
4.276439522592789810e-02,4.617254085502545125e-02,2.602595522247514240e-02
-3.540402567210451656e-02,-1.953070754526536196e-03,6.721525775109948864e-02
1.413449726050213240e-01,5.932890645382546402e-02,7.857141799341399446e-02
6.465698581101796127e-02,2.425417206774242718e-02,-7.252804592365377952e-03
7.888065609087498153e-02,-5.237983267445082275e-02,-6.608641865628094025e-02
-7.951437179077950820e-03,-3.323063627968728811e-02,2.052934546860875689e-02
-2.226301811874015560e-02,-1.885739939638785348e-02,5.407930034046067036e-02
3.551181068664153312e-02,3.421647016860177720e-02,-3.178506913168820808e-02
-6.477545127039650852e-03,1.488859693259415732e-03,-1.148462668654659236e-01
-1.317680082910862444e-02,2.512394921136981013e-02,1.334218437312117145e-01
1.297750060312912769e-02,-3.255808625688355606e-02,8.590673603059543334e-03
1.045794798255045704e-01,1.325090539712185378e-01,-1.838202363570794889e-02
-1.007582744647287920e-01,-3.678830929099407426e-02,-1.829740486240034186e-02
1.687587355626238295e-02,2.273741351856847087e-02,-2.249788339683210774e-03
-9.384865563827339552e-02,2.762993135513008153e-02,8.252873675109380705e-03
5.666496915006905000e-02,-5.427268637943151453e-02,-3.059398097656875273e-02
-3.882946035177255867e-02,2.919378061085007095e-02,6.008996920714089127e-03
6.870953445018236627e-02,2.325810437204070200e-02,3.394477324012300928e-02
-2.360937092202770871e-02,2.797222634964354263e-02,-7.185769425172648661e-02
-5.539977086316440723e-03,-2.528272138857978399e-02,2.783651937369543278e-02
2.025128945672100347e-02,-2.185247417106848163e-03,3.520242444177928282e-02
-3.942282929719250623e-02,1.208920897328368861e-02,1.132029296676452697e-02
-3.598878004783884893e-02,-1.158690229102822718e-02,-5.401422357297442842e-04
-2.914426073622228622e-02,-2.105063764728252670e-02,-1.209833041914787355e-01
7.891409513177212454e-02,-1.332730214535018075e-02,-1.792345681365453344e-02
2.311748650882159903e-02,4.457664949563916283e-03,-1.131578811795388301e-01
-2.426083958937386154e-02,-3.185163632918580623e-02,-1.737376642016253900e-02
-8.340030461777402787e-03,-5.608476371395369363e-04,-6.904240037537864860e-02
-6.884350667746372276e-02,3.495259878075341470e-02,1.001268214803325840e-01
1.110565390564573901e-01,1.038034193420128842e-01,1.768046325557085310e-02
-4.706477405976113026e-02,-3.952964033316880982e-02,-1.029717602254128818e-02
-4.945211870826064088e-02,-6.283750269358855112e-02,3.285024937232743081e-02
-7.545829212543264664e-02,3.950842010252368641e-02,-8.308481676241387393e-02
-1.649111195300909105e-02,9.710673757768392700e-02,-3.593464737749089283e-02
-8.282416528557344504e-03,-6.445783134655044821e-02,-7.634759320740308608e-02
6.272432048078205313e-02,8.925731201054203784e-03,-8.129831301677754515e-03
-8.052952913590582032e-03,9.204776051489511890e-03,-1.352995799636382869e-02
9.678106071724224338e-03,-8.081553750609907216e-02,6.833529975212836172e-02
-5.376375313858544266e-03,-1.288315631382016546e-01,-1.094895571779102433e-02
-1.307920936464796735e-01,3.956175528956761694e-02,3.393369129110374027e-02
-1.254889413355302942e-02,-3.723490686595092025e-02,3.794124697809595631e-02
9.882071400096118646e-03,2.547718330177380780e-02,3.538051074556469722e-02
2.123657870973180359e-02,4.033384726285054594e-02,-3.277179180422637450e-02
-8.238142603575604461e-02,3.403517057326431450e-02,1.439685609028787915e-02
6.940614523188473779e-03,-2.472477448853274348e-02,5.479075267944482491e-02
5.887566414348662652e-02,5.000685587651092223e-02,-1.305784129848056307e-01
3.221099183054528664e-02,2.656030948188372112e-02,9.464301807587273407e-02
7.532956819175004592e-02,2.914449034202800173e-02,-3.757035544872424498e-02
1.497080396641350952e-02,5.199386966314278186e-02,6.022367770308808405e-02
3.196063975211254488e-02,-5.325087629641592213e-02,-1.393417808688027226e-02
-9.282441866205188089e-03,-8.245664359281362765e-02,3.923259803855470851e-02
4.228041235935965300e-03,-3.907166105063348410e-02,2.860540270186782627e-02
-5.672369105708470471e-02,7.330925879815054433e-03,7.453797626385484654e-02
3.446357666518517354e-02,1.012496387710238033e-01,3.663441284444512308e-02
4.866179105075111797e-03,-5.145785516169793265e-04,-7.372153378124204903e-02
-8.047183176585157374e-03,-2.658908784233107031e-02,1.212783204026291889e-01
5.218302096309056226e-02,2.218994735938911722e-02,5.635881364644652197e-02
-3.705401667996894438e-02,-9.272012150751211823e-02,3.543527813537548227e-02
-9.790749760827251527e-03,-1.815161783691226355e-02,-6.451419332572821616e-03
-2.600375874277674124e-02,-7.251253736482748090e-03,1.604897525784805329e-03
3.010473640276761786e-02,1.814507478137201632e-02,5.282225352332938634e-02
-7.375580643350053422e-02,-4.641311922485162611e-02,-1.337682872422547159e-02
-5.709579375824591629e-02,-8.504947088867480243e-02,-1.685452544591130031e-01
-6.274686310232324878e-03,-2.042204219345529134e-02,-5.128816689813694291e-02
-2.274337571583057160e-02,2.536141201796146202e-02,1.853688121257248203e-03
-6.485411048184644422e-02,6.760085762172771129e-02,-4.511876962695392235e-02
-1.022586335680767816e-01,2.426187486431265888e-02,-2.933941344280619271e-02
-9.923684679669119921e-03,-2.379422258262667723e-03,7.676296066831435339e-02
7.792943448581718391e-02,-1.905737586524595994e-04,-1.829619375397265567e-03
4.399671159264983977e-02,-1.710301385194485865e-02,6.359679858822596399e-02
2.924287486315746074e-02,1.490678956616938236e-02,-1.542068153966305311e-01
-2.079711200972331892e-02,-2.634320830562309965e-02,-5.362275402601573288e-02
-2.212740837217688425e-02,1.120143007131356623e-02,-1.080240366525179185e-01
4.966142543172130663e-02,6.711613493525681040e-02,8.403672694029208634e-02
1.343577898424634653e-01,4.504795901355939346e-03,-1.084485165571183324e-01
5.112137319961002763e-02,9.504506315717178855e-02,2.713271312816742387e-02
-1.500892588706120301e-01,-7.775861095610719920e-02,3.217295619868212192e-02
-7.863575269048976579e-02,1.180210771329113645e-01,2.720328164853440256e-02
-2.848573290371503655e-02,-5.135153142836024198e-02,-1.149823069692719642e-02
1.854134777623639083e-02,1.503892656064466891e-02,-9.667805711370769384e-02
-5.411898188762664930e-02,5.848616406318399297e-02,-8.237765250858210264e-02
2.281596488551443868e-04,-5.796712622927838177e-02,-3.433535432148889649e-02
-2.248833760531956851e-03,-2.313933558596658474e-02,-9.225023682446198414e-02
1.456530280082695902e-03,3.301548004520427938e-03,3.444144495090333685e-02
1.196071592022022317e-02,-4.893212601510870535e-02,8.428889574228869488e-03
9.140290581795339209e-02,-1.736241571282810120e-02,2.659129010523820710e-02
9.693713494157268559e-03,9.531745069781098756e-03,-1.138894311069144766e-01
-1.880818603117613390e-03,-1.702370710617769622e-01,-9.404240584504007516e-02
-6.447942214235161118e-02,-5.228749010907488004e-02,-7.339544768923214613e-02
-4.013164370956439665e-03,2.081637179119928682e-02,2.247815526767770258e-03
3.303132114780044093e-02,-4.838352779932066777e-02,-6.284561058861190368e-03
-7.846509759057603006e-02,3.691818083664104994e-02,2.484955237709764869e-02
9.746645512720230817e-03,1.181147686765634808e-01,5.482089526422408848e-02
7.099635696712582045e-02,4.098194980151213807e-02,-1.134358311177791068e-01
-4.620787955697342603e-02,-1.851772289922541670e-02,-1.165765086911469267e-01
5.716004644165208204e-02,2.808230463453538148e-02,2.314027604625094880e-02
-6.760999768382965069e-02,8.118859787783824777e-02,2.130052917443580208e-03
-2.105439107294691803e-02,-4.101317493210845586e-03,-1.034814134287650733e-01
8.267523592302622459e-02,-9.455942303775545510e-02,-5.602804907458741601e-02
-3.921401160967885602e-02,2.121491409278922560e-02,-9.788762060187368441e-02
-2.506656465858412945e-03,1.122155270717996658e-02,-1.617094372905234292e-02
-1.562362596160204731e-01,7.193566180882127181e-02,7.930041272410794095e-03
-2.324652192365340639e-02,4.097817009335633781e-02,-1.324939139701559847e-02
-6.193583459804268693e-02,5.568719152969973246e-02,-5.269777513828349108e-02
5.036581792652641137e-02,-1.787112769595651171e-02,-1.041055290380322462e-01
-7.965151487079807913e-02,2.391915562189411357e-02,-7.817691091259235114e-02
6.850677199085308811e-02,-1.416927365789965795e-02,-2.371757929193838224e-02
-6.520420231600286554e-02,1.741624467559656914e-02,1.957304987880322325e-02
5.664791633264920634e-02,-9.702780166799496175e-02,6.970828805852445631e-02
5.589179953384282307e-02,-9.349873126361703951e-03,4.376914800340999528e-02
1.158259159321635146e-01,2.897460612396067850e-02,-1.214267773552861474e-02
2.507402414823478934e-02,3.223795718024123624e-02,9.822345441455188064e-02
3.844086916901392342e-02,-7.678545414645063238e-02,-7.540211336414961996e-02
-3.977957788802460176e-02,-1.084712096522546382e-02,-2.536553230752741986e-02
-9.519945587646889973e-02,9.473379692536960592e-03,-4.860706241571229394e-03
8.263547745615985873e-02,2.619283875586250754e-02,2.909732227517550229e-02
1.954348134001226978e-02,7.454068342318143081e-02,8.181227537529942029e-02
8.162590875586585304e-02,-2.319499884017341140e-02,-5.057538549613572326e-02
-3.883933119137850803e-02,8.370315375859509188e-02,1.223692324160952499e-01
2.662774610205285650e-02,4.303466356805316084e-02,-1.267583309021249327e-01
-4.179328509183116019e-02,1.895260007775350850e-02,9.075419633160911048e-02
1.705725485192809490e-02,-7.425675301564360620e-02,9.932118979482749965e-02
1.296548029490143805e-01,6.395321970153815261e-02,-1.532548900078051501e-01
2.876425972864221636e-02,1.179764679081549278e-01,1.788084576517253929e-02
-5.206742733865708968e-03,-2.376806674806391032e-02,3.204831324202912085e-02
-9.744842159412615834e-02,-2.943525894305357854e-02,3.441944133574742493e-02
-8.713134209768023247e-03,-1.424444134302288618e-02,9.257478890407816463e-02
-1.138831145482550739e-01,-6.800993185506211403e-02,4.097977063426855304e-02
2.703417612795490366e-02,1.430498905751310598e-02,1.387287785296036600e-02
2.432071794513621793e-02,-2.663717449540814811e-02,9.799336612695505599e-02
4.732095861873352599e-02,5.440014626619903149e-02,-3.370164117668063980e-02
5.150631728888707683e-02,1.464079201736572661e-02,3.735740490649920587e-02
-2.564100480984394387e-03,-9.381723070615465010e-02,-1.896692299845414292e-02
8.043024332111010921e-02,5.742420824521098782e-02,-3.693441386828516526e-02
-2.281548994242606557e-02,3.740440891505591309e-02,-5.401096151719315258e-02
1.004665116529310362e-03,7.987659425369159072e-02,-3.624862067699971546e-02
-1.897206953817900249e-02,-1.701134163377968425e-02,-7.432202924288225376e-02
-1.488383642320627309e-02,8.280136105633302546e-02,-3.746974267174397327e-02
6.489110002935100097e-02,3.198665723615858741e-02,-2.998839515855492716e-02
-8.375532849354537512e-02,1.903450114804155222e-03,5.075006479195255660e-02
6.439586163342514435e-02,-4.317706024714502988e-02,8.813752041573431895e-02
3.759701943462710749e-02,1.254313419895206061e-01,-1.487593508321065957e-03
2.958569636897667027e-02,2.561671459608615489e-02,-2.246318006389227961e-02
-1.661173940121081494e-02,-2.219535745239679253e-02,-6.214984167326056269e-02
-1.138614658202707214e-01,-2.037265712372472379e-02,-5.798297087752781603e-02
4.360000492707457459e-02,4.855993743785163436e-02,-1.161486606317267169e-02
1.729882180563827310e-01,-1.944532869003611289e-02,-3.568449524403918133e-02
-4.212970028671850914e-02,-6.518694203007201204e-02,-6.019333649261232599e-02
-6.635830299776391758e-03,-5.887204520854139381e-03,1.285139806273165042e-01
1.899636147425099938e-02,3.286702358267593743e-02,-1.781524884639443945e-02
-1.415541215299837285e-01,4.836611975701924498e-02,3.259357213857608238e-02
5.251566028770814770e-02,-2.129679674026834987e-02,3.802005290818372824e-02
1.545984015752722290e-02,-2.541119503833638021e-02,-5.259905676187259099e-02
-5.137510647478003845e-02,-2.973813683162730356e-02,3.129267197814344231e-02
6.970043229454711553e-02,-2.446387907449962609e-02,2.060043379736379784e-02
-1.323491249923788859e-02,8.898313177023585430e-02,6.025554278523688294e-03
-2.619331778278601724e-02,1.649597161476909490e-02,4.380371234953835125e-02
-7.091756155928780579e-03,5.984904075578885430e-02,9.413100698628346086e-02
-3.692579680763274225e-02,-2.158006132775299180e-01,-3.401704766222826692e-02
3.892330389896236226e-02,6.107822949681607216e-02,6.893216909316883523e-02
5.775646471407214211e-02,-7.201970315603762121e-03,9.161583163283384956e-02
1.077463487270500092e-01,6.713625892296004594e-02,-1.090730502200027430e-01
2.234027558961762180e-02,-6.083480756960741448e-02,-4.666581409484504145e-02
5.267075344641417717e-02,1.932618934426291735e-02,9.173152462444879654e-03
-3.232406789877544789e-02,-4.494706078590388759e-02,-2.295549207586065205e-02
-3.369475819553881951e-02,4.554776430333338372e-03,-2.830516329300359832e-02
2.075482109948223464e-02,-1.957300118772727776e-02,-6.620821026873875692e-02
-1.195298953342786158e-01,8.654936820013486160e-03,-6.768162717014730712e-02
8.273491782688176255e-02,-1.298489940618574590e-01,5.463956516007974218e-02
3.925661339602403571e-02,4.362941375073500772e-02,8.076834439130341214e-02
-5.252498448395296476e-02,4.019918219573167389e-02,3.353219693905015730e-02
-2.049739211168827638e-02,-7.856769630583392006e-02,-4.266081511616665392e-03
-1.546782151960515543e-02,-3.004301692603211088e-02,1.196161336996854896e-01
-1.552484591461306650e-02,-3.922055759085893434e-02,-7.130180946312167367e-03
-3.857377611865944050e-02,2.916510029630575013e-02,1.129085901516595214e-02
-4.585347265956365298e-02,-1.062820027520703370e-01,-4.069350352251453057e-02
-6.802533077567674002e-02,1.989817420829373060e-02,-1.954065891880475345e-02
-1.267964916152305999e-02,-4.671369554347948316e-02,-7.549117333649695005e-02
9.668017211087289245e-03,-7.624219468373375462e-03,-5.318633616223343574e-02
-2.202296690947845928e-02,-8.643569266445837174e-02,-1.030824719852218713e-01
-3.812838205790831242e-02,-4.034062047103550291e-02,-3.769449685472649192e-02
5.324682897356244199e-02,-2.653468035649934886e-02,2.065508027902045532e-02
-5.786992930959316411e-02,-1.633005343646236340e-02,8.542517717077620712e-03
-2.095018777462560877e-02,1.848439626929820889e-02,-9.899189471136683738e-02
7.139570862488374414e-02,3.832143138947002176e-02,2.618012934986924112e-02
3.463087929228706677e-03,8.097114004278341270e-02,1.064492744302310417e-01
4.618625437123309585e-02,-5.259993658796212335e-02,-1.032583722374938451e-01
-2.548442094141140091e-02,6.054519313902332472e-02,-2.884303820068707253e-02
3.699029781101226960e-02,2.501739628755492335e-03,-1.032797647607803793e-01
8.256593089029756749e-02,1.790286305946553122e-02,6.272897157625023645e-02
-2.266450363621843721e-03,-9.823604271004404698e-02,-3.283263324726370253e-02
6.221469495221593204e-02,-4.353508013698313694e-02,3.196312416488990196e-03
-4.314559545917183436e-02,-1.070020416948572889e-01,-7.945361730891137286e-02
-3.964459115751135798e-02,8.729983818351523886e-03,8.605580687267894158e-02
-2.004944976456513386e-02,5.193084809050055838e-03,-6.674250337136500288e-02
-1.799934772027842259e-02,3.432709157086145935e-02,4.907236780561628070e-02
-1.145979496425031038e-02,-4.096869371613597738e-02,-3.402100193579240400e-02
-3.346546342127474510e-02,2.967637263993021853e-03,1.007781619122360972e-02
-1.625932656342257004e-02,-7.963364180082389832e-02,-4.521242901553617494e-02
5.303671910139561192e-03,4.556677609702363546e-02,-1.466722212863575958e-01
-1.258641425568747529e-02,4.348142807153702882e-02,-2.082372743331335069e-02
8.406372890047163204e-02,8.062503399121944206e-03,-4.918845860361071264e-03
1.078118923771291399e-01,-1.270464543133384416e-01,5.651851826927322547e-02
-7.778779624381391630e-03,-1.855654709700742602e-02,-2.612516441098335085e-02
-8.152709238778435563e-03,-6.361593441563372087e-02,7.304583136282864764e-02
1.350880101287733892e-02,-4.884382805769984202e-03,3.006147236920898164e-02
3.299805863001822881e-02,-1.393004853508011086e-02,-2.091754317974482691e-02
-7.499939951807962912e-03,4.986491814456750493e-02,8.205139822665820371e-02
-3.845015886550968293e-02,2.453423906874725377e-02,9.416166254026157867e-03
2.210561080146903820e-02,-9.043998302561542801e-02,-4.568064568427882693e-02
4.202074658070525937e-02,-2.778113275641419522e-02,4.318487683072867733e-02
6.616640123213377023e-02,-1.245709547123152565e-02,-1.090305273413389245e-02
1.469334873031004352e-01,2.941501932690255075e-02,-2.884945445345632638e-03
-3.646908119784147972e-02,4.117520727268528941e-02,6.058180278119544571e-02
-1.814280123793153912e-02,-7.506003450839059468e-03,-5.403341124018194719e-02
2.232098926156120614e-02,4.791949601916594553e-02,5.073041156147491994e-03
1.704162685823845669e-02,3.969810609980486960e-02,-5.608086366963343367e-02
2.928563030831098091e-02,2.819484879246432138e-02,7.734202604978149265e-02
8.386480210628109722e-02,5.550342773747515834e-02,9.173477773458744294e-03
-2.483563682050882876e-02,4.260241027659560087e-02,-1.027570323735923496e-01
2.758480387328050148e-02,2.683823349955597251e-02,-1.034823956885516510e-01
5.035632125906803341e-02,-2.608685287362884353e-02,5.455641735304678913e-02
7.379192129832343183e-02,1.141939200070623828e-01,-2.414053938950048647e-02
1.485804147005150358e-02,-3.755501954758805327e-02,-2.586774243250880220e-02
3.998835269675393711e-02,3.305342093155940603e-02,-1.714162408024657788e-02
4.718729475765046782e-02,-3.288192134412736261e-03,1.421994535636316240e-02
6.749248828662127164e-02,-7.798307317964475738e-02,-4.927896921857464682e-03
-4.319543923258249707e-03,8.359756486973411727e-02,1.902483448009731262e-03
-5.388890290474871586e-02,-8.336731260333452714e-03,1.080508913792174947e-03
-4.936833350656318065e-02,7.982254992331176691e-03,-2.451252298650805767e-02
3.127729747438175167e-02,-2.138584025808172584e-02,5.330020989898955064e-02
3.551915653157751429e-02,-1.236846533991336171e-02,2.176690220855823088e-02
5.889865671972837474e-02,-3.707004896129076355e-02,2.833392769683803700e-02
3.003930835703821499e-04,1.061033758232046292e-01,6.431442200993589542e-02
-8.921773702693898411e-02,4.238576501633555850e-03,-3.143318595720497217e-03
-3.498054462459814808e-03,3.194360755515417150e-02,-3.311958389376191969e-02
-1.984140550060337765e-02,8.844212737847435835e-02,2.791161594006143915e-02
-7.303944231926984276e-03,-3.083397382221580996e-02,3.768378766954560283e-02
-3.503993751926675476e-02,1.175802603864211510e-02,-5.115757406144889885e-02
-2.964209586569011706e-02,-1.040676328177058210e-04,-4.228046737662499027e-02
1.133371107546748968e-02,7.122806490653676992e-02,1.146399595105908331e-01
-2.360463806028937142e-02,3.147570176226584249e-02,-1.379549520212639555e-03
-9.933410579060263437e-03,-8.603525190098909592e-02,1.062503842950969675e-02
-4.581131690321534750e-02,-5.766094490540872933e-03,1.086508736414243254e-01
-6.125175473034096679e-02,2.677491510935457036e-02,3.460532292604714955e-02
-1.606306721346289004e-02,8.497891778478904035e-02,-1.152296099032160126e-01
1.881823062403607154e-03,1.081244495781088708e-02,-4.669685248264395655e-02
1.747751164623741887e-02,3.985109077268979283e-02,-8.683544648567778981e-03
-5.132209603636171680e-02,3.655916786221800191e-02,2.495697288164210048e-02
-8.890861425053971090e-03,-1.458183078795028120e-01,-1.978056757023071224e-02
-1.125577875820155116e-01,-8.296454203854336518e-02,-1.244655806930568612e-02
-8.608747600063473837e-02,9.941202703428625442e-02,-6.457966719414545698e-02
-1.612051884623920406e-02,-1.028262451103882785e-01,1.320098788253168051e-02
-2.277032656381126549e-02,-5.712998005125857759e-02,-9.934474681056953971e-02
-2.134614223423323548e-02,-1.013025521154583969e-01,3.887997639123944027e-02
-9.860123262313064130e-02,-4.818883680480893356e-02,4.007425506008074206e-02
9.696049101665460412e-02,3.130498858204167761e-02,-3.111124277609357211e-02
3.308921458148834233e-02,4.600917076194685484e-02,-1.243954368925516071e-02
1.484336586673171317e-02,-3.834206559699589179e-02,-4.800908531526856815e-02
-6.556337393539049541e-02,8.096445101142783762e-02,1.398735979772379109e-02
9.063722157683987146e-02,8.867129806334814179e-02,8.319860796310314666e-02
-2.089580615952761622e-02,-1.413961851489500647e-02,5.604320508062345108e-02
2.104382994888677819e-02,-5.745200065304972153e-02,9.328959425263570748e-02
6.086301979906552639e-02,5.308963494318855170e-02,-2.179955659251318900e-02
1.135869425707796698e-01,1.870980445071563150e-02,5.195556639184962383e-02
1.422849175732918137e-02,9.060103629989499363e-02,2.352307872385293874e-02
6.006039525767473131e-02,2.992401368621139257e-02,-6.723340297249529030e-02
1.429838769890480754e-01,-2.363876667071138082e-02,-2.034673092420461946e-02
-2.282853994089631411e-02,-3.160377675233098840e-03,1.049079890415805516e-01
4.287243283863448329e-02,2.431184148325853198e-03,-1.576014495364325488e-02
1.136011869549311687e-02,-5.126313674124701771e-03,-2.504394934083624402e-02
-3.246538839612960609e-02,1.048433584272820407e-01,-3.657353059796585037e-02
4.286130672972571914e-02,7.963182497443754837e-02,-2.350577871488416029e-02
1.786911994352968075e-02,3.040282039376519460e-03,5.801950608365663564e-02
1.453323859528014572e-01,-4.399982670920292611e-03,6.883425809665524170e-03
-5.637948133311201752e-03,4.896509304082867498e-02,4.919968107768573490e-02
2.338403075167417786e-02,3.727151326707262013e-02,2.025850990067031704e-02
1.307525973895421190e-01,-7.436082488658513935e-03,-4.460137453263916807e-02
5.956324977657286718e-02,-3.410724105835824527e-02,-4.207071766963053905e-02
1.747642847055587770e-02,-6.722511668910854943e-02,-2.041243823500994009e-02
-1.108247184833887899e-01,-1.406888047535062407e-02,5.318427977761323172e-02
-1.198213759122424282e-01,-4.956903003829455506e-02,1.864670597303855551e-02
-5.495258840133160350e-03,-8.061270801937065952e-03,7.046649440888907989e-02
-7.027192172655083446e-02,3.749761421800455047e-02,-3.319942538231698825e-02
5.852338512813089200e-02,-9.134438772313788202e-02,3.002112271843029173e-02
-1.710691653080874614e-04,-1.906125578684902608e-02,1.235627890321954782e-02
1.370172018664154723e-01,-1.426329160298535001e-02,-1.368795824132175779e-02
-5.550445941806784328e-02,-6.618987653873392718e-03,6.011371291309242776e-02
-1.028436255308594477e-01,-5.527960660787886726e-02,5.142127841649263287e-02
7.609136872316185629e-02,-5.963642835060752045e-02,-6.001451737035438244e-02
4.081689352788492320e-03,-3.881476580314587033e-02,-9.014076280326628610e-02
-1.369238721996402126e-02,3.267719745524317460e-02,9.750150633436419079e-02
-5.291723635221200206e-02,5.756842149681478532e-02,-3.411762524665578472e-02
7.617707660599884467e-02,5.650621850480358477e-02,-3.819972404016827952e-04
1.431285524570728440e-01,-4.900186510564902807e-03,2.149072292086178643e-02
-6.518155799722251398e-03,1.223217612367403645e-01,2.757516513161786115e-02
6.220586130854903473e-02,7.284852581586964866e-03,-3.454785555082309084e-02
8.706127749163553031e-02,8.393233621729344340e-02,2.828162881994236363e-02
1.393625553231631065e-02,-1.047277827409579115e-01,-1.383100458983733960e-02
8.184535935871527224e-02,2.387529170046802721e-02,2.692585172512618891e-02
-7.242495467471833648e-02,-4.162432651651106624e-02,5.895277195702828404e-02
7.436957878275519962e-02,4.925716493821548359e-02,-1.430482416864214436e-02
4.268815218710840520e-02,1.590216407898384018e-02,-4.761128182012657611e-02
1.008489826283895385e-02,-3.329587707897178894e-02,-4.951350517986191635e-02
-8.039689297444099769e-02,-4.192658214858081996e-03,1.503192301791355170e-02
1.130957773629447452e-02,-8.950636260462334348e-02,-2.768765334863290684e-02
8.564507587966439794e-02,-1.863022955300915745e-02,3.786130666850881510e-02
-6.533282943377526075e-02,-1.801558488691785975e-02,-2.545828186804463891e-02
3.312101699258449342e-03,-2.543765037472421262e-02,8.536159507041336802e-02
-3.292286209676588415e-02,3.426405403874062221e-03,6.087821941898338696e-02
4.195406671838809026e-02,6.400732879954217254e-03,-3.394373835870975742e-03
-1.058951981459943514e-02,-2.449187297921898848e-02,4.068515306102219939e-03
5.780307879812167371e-02,2.388339542755075692e-02,6.672502330543617077e-02
1.625906818050048760e-02,-7.107402998144064787e-02,-1.067828758137783357e-01
-4.886224745138592618e-02,-6.534268136921109194e-02,8.580569910177361648e-02
-4.996738174363409696e-02,2.459078177622318895e-02,1.603957195270955607e-02
-6.071484720529777418e-02,2.977287049479304323e-02,-3.009864790711663449e-02
-5.630554335331398874e-02,7.582177916381267757e-02,-1.687616173191412890e-03
-6.377452787625095820e-02,1.354691427033614115e-01,-1.526147602043363867e-02
1.273041446367877694e-01,9.305113776699477923e-02,-1.595019126196511872e-02
-6.272459776982296231e-02,1.091132771558801368e-01,6.137106924184946438e-02
7.184072065738927870e-02,-1.448187033880097944e-02,-7.932320237559029041e-02
2.816648249688442213e-02,6.808519070520831218e-02,7.310758847305601216e-02
-6.766149857272388268e-02,-1.108490632967684512e-02,-3.819672216276955717e-02
-4.816053754651123536e-02,2.733392633571509606e-02,-5.776331932924012869e-02
-8.769725265908105694e-02,-3.222480386749058262e-02,-7.418353853067913284e-02
5.044364024466133078e-02,2.613256082904189589e-03,-4.470395843682531400e-02
3.365687691470498066e-02,5.926420845665685694e-02,4.667758787196693571e-02
4.178861559446254287e-02,1.176524301461128186e-01,-4.700506983949748196e-02
-1.653649204658763291e-02,-4.331848516942586602e-02,1.251430076497972617e-02
-1.557535580621791788e-02,6.762239266214108147e-02,1.020249648620079053e-01
-2.592572522447200711e-02,9.725278513553833534e-03,-6.717226212116211501e-03
3.581716055789645886e-02,-6.336332739083520849e-02,1.337121987165138838e-02
6.727683923621974836e-03,-2.703844414443904581e-02,2.607153503560803807e-03
4.462256734516496792e-02,8.024998869674672408e-02,-1.739270359527586227e-02
1.451310300753106027e-02,3.411803700503856368e-02,5.940393142329792459e-03
-4.243769133796192888e-02,-5.230740721330722626e-02,-3.768565906957924150e-02
-1.086499543737192153e-01,1.151626533883369670e-02,-1.239566650019597715e-03
-1.188946041310199112e-02,2.238366914242359215e-02,-6.018852552148168389e-02
3.971969473498389996e-02,2.563063553023760613e-02,1.459508246131446252e-01
-3.418894183874930659e-02,1.253351801944675714e-02,-4.414288581906770925e-02
5.514049716300314929e-02,4.007375955756844327e-02,5.415612950380789895e-03
-6.734106237614943813e-02,5.942032147023582067e-02,3.410160025881502077e-02
4.237958991316093105e-02,1.827317943794235303e-02,2.765240033723697505e-02
1.963018219567696718e-02,1.842248778657338149e-03,-2.925852694718776917e-02
1.078032872626837751e-01,3.602098868650122770e-02,8.089928320719630417e-02
-1.277807699380585638e-02,-4.854764259749132921e-02,-2.629776446110772964e-02
3.849051918525696336e-02,-1.133877702869794807e-01,5.696226605820954580e-02
6.342959385049087850e-02,2.222683037054875091e-02,1.224738589132577937e-01
3.581641031936205755e-02,-4.344292175777571263e-02,-8.099107326831457565e-02
-2.004016009692653061e-02,4.989449003059735072e-02,-6.327193662372934679e-02
-1.763174462815423338e-01,-1.053150808418031829e-03,-7.399370728264759167e-02
-7.187504378438266776e-03,-2.665114934023561297e-02,-4.193793514787761550e-02
2.896360756337633055e-02,6.114859281813197350e-02,7.963841843151586719e-02
-3.206826816386723622e-02,-3.943813560161819193e-02,8.078677934382962056e-02
3.044949115147665628e-02,3.797380173142449883e-02,-2.252411461686244787e-02
7.633211204127095251e-02,4.648677400846785296e-02,4.257119546951771555e-02
-6.997455035751908026e-02,-1.262177454499780090e-02,7.409579605352765996e-02
9.109773340714916179e-02,1.905898473383275255e-02,5.311300506838530049e-03
-7.947633324754319051e-02,2.958137778042231256e-02,4.551593897019624163e-02
-9.750326561514109647e-02,-8.161464288244642262e-02,-1.517550603944729792e-02
-4.619864346647190728e-02,7.848413970872794576e-02,-1.159117887253646173e-01
-5.869835501459520072e-02,-1.511371583621052422e-02,6.975987558028842739e-02
-4.256727965609453934e-02,-8.038441882040951725e-02,1.403385878292979540e-02
5.140142786419968357e-02,-4.111383521803227414e-02,2.731291364833786218e-05
1.306614238402703174e-02,-4.136695572199564769e-02,3.188271628562925480e-02
2.736114495105829852e-02,-2.606923722379429417e-02,5.657606373005504008e-02
3.602783969088210747e-02,-5.625628375184923979e-02,-3.842639612782290659e-02
2.342418199694426550e-03,-1.020575357797198768e-01,4.781098222874036185e-02
-4.970712367854549646e-02,-2.366506034849778783e-02,5.265490074135392717e-02
-2.652460555052276858e-03,1.312995353302657056e-03,-5.800164503657525422e-02
-4.336757130507919861e-02,-3.804353843556949194e-02,-3.048501045744743832e-03
1.236723367504450194e-01,6.595005040442375455e-02,3.927263623261858204e-03
-6.753462218198158507e-02,-2.634545821250821110e-02,-8.928992122755959222e-04
3.292272492025676706e-02,-6.406762746351438859e-03,-2.490337989250593007e-02
3.914859119743150512e-02,2.029127156804684876e-02,4.945263795474200835e-02
6.814794157570810973e-02,-3.165777554235770647e-02,2.675737847868182862e-02
-6.801489307716107775e-03,1.074047540649269994e-01,-9.392240907544679648e-03
4.475721292581216759e-02,3.436719357250177243e-02,4.400809997256669923e-03
9.022259156660109025e-02,1.136362426923889432e-02,-9.357911132118622299e-02
-3.984042633040493081e-02,-6.495224817247159665e-03,2.784571699416380636e-02
8.145560056156114781e-02,2.615212092993795742e-02,1.043232964607697724e-02
6.108421430082352707e-03,-1.814276732147023993e-02,-8.384422443869084252e-02
-1.699489491480887446e-02,5.869958415726710121e-02,7.397987798209848878e-03
-9.611104494543476484e-02,-1.701621572077258171e-02,-3.861192068859211485e-02
-3.330012416737810482e-02,-9.930802931446562967e-03,1.076085374050738015e-02
8.120731885223553270e-02,2.545705608530963657e-02,-1.100289098120795367e-01
6.070120476093311679e-02,5.404879502459446206e-02,-9.108590170528259311e-02
-2.980911432497922392e-04,3.262904725775153669e-02,4.995640849470184275e-02
1.135399709844153032e-02,4.703892157665821860e-02,4.394429639417074540e-02
5.471450485223732646e-02,5.003317915616947720e-02,4.701127199485678754e-02
4.796970417978182327e-02,-2.849202546920863791e-02,4.536941201357430620e-02
1.861705558277279571e-02,-3.213453872448220755e-02,-5.218191317788419686e-02
-4.629771932888610692e-02,7.222171585039330668e-03,-4.249024703041000967e-02
-5.908118297476982334e-02,3.029114477185307699e-02,7.876051771590125358e-03
-5.890160008560307164e-02,2.254716132601579728e-02,-8.030295941966346732e-03
1.329347254475954365e-02,-3.448591497169713888e-02,4.113541339265271851e-02
3.318216052875141986e-02,-2.421495718854685050e-02,1.143477701533165136e-01
1.285230263966578579e-01,1.336722529721787352e-02,4.322668856422035022e-02
3.492403293141255194e-02,-6.857464284084704986e-02,-1.260724398604299266e-02
-3.009461372557875602e-02,-7.353482524758804539e-02,-1.221032743041649410e-02
1.007016087531856507e-01,1.122145574323791389e-02,-7.072243788732260339e-02
-3.975971857913662699e-02,1.418949212337822785e-01,-4.267317364777773597e-02
-1.263932119492666983e-01,-5.034166233441121109e-03,3.953624798557555525e-02
-1.052397804250329409e-02,-2.702561726861280739e-02,2.869219463754511118e-02
-3.268153377214710886e-02,-1.070307845240145161e-01,-1.738173325298956583e-03
1.495136878109228629e-01,1.830003226203475580e-02,7.153491835555180270e-03
2.539878930968489032e-02,-5.125366494611940937e-02,-9.102148377997797135e-02
-8.893670971555769911e-02,-3.490406974549876973e-02,1.197683350706346128e-01
-9.734410585550187789e-02,1.006563016591619092e-01,5.442188568907718391e-03
2.719875087599037122e-02,3.227727559413549191e-02,8.923321643888136936e-03
-3.259474417437621674e-02,3.608173166679099451e-03,-2.631297541881874938e-02
-8.065238105156039006e-03,-5.941939564353414249e-02,-3.350823522026932788e-02
4.266191319646801816e-02,-6.884898567024322347e-02,9.414435611815397120e-02
-1.825270622158993526e-03,3.681051582372058852e-03,3.129176709332624762e-02
7.427130971477086119e-02,8.186240576013035022e-03,-1.316688987155837168e-02
-2.123299556536204988e-02,-1.935520413792798586e-02,-1.737993104346382753e-02
3.493823689329232651e-02,-6.146524014655625062e-02,8.723476164345706288e-03
5.719708453413705623e-02,9.837703046198716453e-03,-9.903964503649066720e-02
9.440821069537876087e-02,-2.444354596122947504e-02,-2.423431595993377416e-02
-1.773922808907614848e-02,-8.944865336178541362e-03,-5.728700307548521137e-03
1.002350493217383787e-01,-7.530485182531952704e-02,-4.498233720195819046e-02
-1.258592065176896563e-02,3.598833870168048621e-02,5.681224345527247782e-02
-5.664286121002366087e-02,4.141979451352654357e-02,1.062379501155882693e-02
2.947570424997765504e-02,-2.099941423980128744e-02,4.492717643461358046e-02
-2.036589902952696748e-02,7.151798562920060054e-02,-5.488048067478729780e-02
-1.941148500201526211e-02,-9.207006769098409482e-02,-5.152844636247174911e-03
4.741650754110104254e-02,7.285244952614187974e-02,4.382322883938035568e-02
2.800275520665878454e-02,-6.470599390172727082e-03,-1.539718941372833320e-02
-5.443588395229227717e-02,4.024404835000631314e-02,-8.941095839685360772e-03
8.039419214169468697e-02,-1.291843212295708428e-02,-6.566601478981482116e-03
-2.486426940825318607e-02,-2.789424304490406223e-02,1.468376192260335660e-02
6.480629378002623897e-02,3.713637228628955539e-02,5.290820448757579259e-02
1.606256368967844822e-02,-4.241992072458184576e-02,9.811981332021834507e-03
9.712629893649762924e-02,1.027829536513223153e-02,1.311201811706946135e-02
7.971629737377828109e-03,-8.988017723871714881e-02,-1.961028144671689288e-01
-2.483859418276098546e-02,2.560255990093014342e-02,2.742143196119491838e-02
2.445768241480877903e-02,2.922674314734971697e-03,7.619170280254203287e-02
-3.432252163703877063e-02,-5.225965366192654449e-02,-1.457488223207553321e-02
1.109836687847662491e-02,6.185490660816482522e-02,1.841904640355944076e-02
-4.777692209959548408e-02,4.126772239666268854e-02,-1.039409809164543175e-01
2.701374509537145859e-03,2.231296743098231186e-02,4.777599165580913125e-03
8.036787111321747057e-03,-1.026829591668520919e-01,-9.827914426402806214e-02
-3.547725292451468088e-02,-6.698585239905908983e-02,3.859622838607680573e-02
7.825013485385599876e-02,2.218419500637560868e-02,3.936166812951780863e-02
4.982143983033126416e-02,1.144665415018041726e-01,-2.033644760776771865e-02
2.793524337664134421e-03,-8.671253383883796573e-04,1.258420592766160834e-02
1.066113660754021697e-01,-3.926717429295032563e-02,3.072224461957679537e-02
-3.101648339892680573e-02,6.111792823307560935e-02,1.279845152636608805e-03
-4.018751759999559386e-02,-3.801819540542376169e-02,9.407749931553173461e-02
-1.098240208698957610e-01,-5.502591772169847933e-02,-3.943500122075910101e-03
1.389137319682882954e-02,-9.768643311665371753e-02,6.775856069295746464e-02
-3.948962214834228490e-02,-5.048937051263685874e-03,-3.581349754465232987e-02
1.320860029609616064e-02,-5.213803849216380737e-03,1.262197621367689392e-02
4.615477148963577358e-02,2.957099878134136078e-02,1.062308579620445947e-01
-1.811663370558385527e-02,-1.166682003407350753e-02,-3.593911925100279348e-02
-3.404388640450551912e-03,-2.041866342280816704e-02,2.482838066470838961e-02
4.005276562326751458e-03,-9.047551480408198843e-02,-6.507390168756580807e-03
-5.549893478751831769e-03,-3.601629923488555013e-02,1.024984169091034021e-02
-7.327210699443370556e-02,7.103323156407331807e-02,-2.340880274665588581e-02
3.805904095602891807e-02,-2.979857813020298299e-02,-1.821533245138750798e-02
-7.992162523122071927e-02,-1.603340017279412597e-02,7.713710447946001136e-02
1.570330527045437144e-02,-3.174920933090769060e-02,2.706623709575426209e-02
5.964983411688628417e-02,7.832536521910721250e-02,1.410380276983511927e-01
6.556158021221351884e-02,-1.066119674841095322e-01,7.516084600380117109e-02
3.483965033570166070e-02,-2.902776044965230465e-03,-3.368608606143382728e-02
-4.043072559869841792e-02,5.395918271492759766e-02,3.533083443820324993e-02
-1.157622091688401134e-02,-6.270933429902168788e-02,-2.032686771939555548e-02
2.918900550307666070e-02,-5.720458537664363519e-02,3.983979312186709115e-03
-4.878680621155755126e-03,5.618558347717417939e-02,-3.923891602013164503e-02
-1.353934290913816896e-01,3.014437484993911023e-02,-6.521647663787123739e-02
7.276185518697025900e-02,7.966863083169582749e-02,-1.262888508353874478e-02
-3.040975733194999087e-02,3.981566801207520739e-02,6.277275144241342697e-02
7.521089449217760459e-02,-5.081582309525975449e-02,-3.647002684269202294e-02
1.918314435466321466e-02,1.666828639015654756e-01,-2.138713673827152481e-02
1.515538995529511213e-02,-4.280954984439908073e-02,4.949373463521155453e-03
-1.379912576280977257e-02,2.643435887726200070e-02,6.041723850589977851e-02
4.771300980572350248e-02,2.763891530227260409e-04,5.033948850584380602e-02
3.226381661166685590e-03,1.126128394564289703e-01,6.045828208604921844e-02
-3.489111312383776781e-02,-3.941098681195115416e-02,8.091181189836406384e-02
-6.489753966498572335e-02,-2.390701910582937462e-02,8.136690601612241386e-04
-4.300960112662284389e-03,3.130341264891036562e-02,3.436030335617282216e-02
-7.448664966314142225e-03,3.798878445557147404e-02,-2.570081061795279065e-02
9.481010062693331908e-02,4.738830846100072075e-02,3.737709886695884942e-02
6.419183318322202458e-02,-8.412202213714616017e-02,9.640297257204598347e-02
4.078427929463851291e-03,8.160403416993460002e-02,3.361812602943085176e-02
5.097359401041270943e-02,-3.267616897197342385e-02,4.032058141699911002e-02
4.506341999470255336e-03,6.772822651425244866e-02,-5.820835049495352159e-03
4.034926694919957479e-02,-1.077625675071495689e-02,1.236247520723868058e-02
4.420239056677668227e-02,8.305215703556440010e-02,-5.351285241170938151e-02
6.535918252770296644e-02,-2.439591695164727847e-02,1.706812186096025655e-02
4.934313344562008680e-02,3.690807258812237035e-02,-5.202761640286995837e-02
-1.411777698955303251e-01,-5.430814090055278986e-02,-3.201028956054546154e-02
1.558854071088486282e-02,-2.066114089111583188e-02,-6.277083687769437204e-02
-1.125038890744282372e-01,4.844539362635557483e-02,3.934742923432907324e-02
-3.399866384595721241e-02,-2.829333670809270826e-03,2.218724869618607203e-03
-4.732195058271383009e-02,-6.958496889615654879e-02,-5.946073073190739910e-02
-3.204349911584517679e-02,2.940065761044736298e-02,-6.724105566264886036e-02
9.650744211830450045e-03,9.097426194379686082e-02,-9.619274299960785257e-02
2.264890147095480200e-03,5.720777973726833693e-02,-2.569813160974778257e-02
5.629177103486302652e-02,-4.917719487900708980e-02,-1.566726933106421249e-01
9.224742600644952883e-02,9.717380133783001805e-02,3.977801350373540157e-02
-8.532572610654510017e-03,5.226830778509033298e-02,-2.810009776574162212e-03
4.877086625743579096e-02,-4.777557884644953630e-03,6.455885660922330849e-02
-1.084336626631526718e-01,-2.941131713279708515e-02,4.773062497141657839e-02
-4.026634159067673385e-02,8.715554976950220731e-03,-1.083199973822008277e-01
5.494016953486716148e-02,-1.950266566833800796e-03,2.196081448119637999e-02
2.166923736480743864e-02,5.305915185548002594e-02,-2.690731481905226166e-02
4.104001275775658042e-02,2.124715571297184583e-03,6.940842803682987366e-03
1.012402131109048919e-01,2.077203105909578018e-02,-4.739622360079701752e-02
7.090033497002862228e-02,-9.667341408636410949e-02,-7.054309719534899992e-02
8.029238498826446468e-03,-5.555219605744405459e-02,1.258991115255025106e-01
5.864710181361284386e-02,5.240418427582252403e-02,4.714220482390292510e-02
-8.571032327493037159e-03,3.122133402207321468e-02,-3.360316781877444731e-02
6.358553398706406727e-03,4.736960510782298184e-02,-6.985457624506367924e-02
3.327217994968752895e-02,6.361845980680570778e-02,3.033173343903288605e-02
-3.966544005013176999e-02,-3.737358766227467238e-02,-1.473724195364645075e-03
1.041167496877205556e-01,-8.187916159621240475e-02,-3.987333092233825288e-02
-5.233908996158162519e-02,1.796821147505392111e-02,8.964470177388540739e-02
-4.796826960554176345e-02,1.730504862336715386e-03,5.534302205914112122e-02
-2.761629190698423886e-02,4.566720287980020193e-02,1.153683248310423265e-01
