ref_gyro_x (deg/s),ref_gyro_y (deg/s),ref_gyro_z (deg/s)
3.601799649885233882e-03,-1.804076222671866132e-04,-2.117390548902823612e-03
3.601799616550021253e-03,-1.804076222422231835e-04,-2.117390605607882229e-03
3.601799583214807757e-03,-1.804076222172597537e-04,-2.117390662312939979e-03
3.601799549879593394e-03,-1.804076221922962968e-04,-2.117390719017997729e-03
3.601799516544377730e-03,-1.804076221673328671e-04,-2.117390775723055046e-03
3.601799483209162066e-03,-1.804076221423694373e-04,-2.117390832428111061e-03
3.601799449873944667e-03,-1.804076221174059805e-04,-2.117390889133167510e-03
3.601799416538726401e-03,-1.804076220924425507e-04,-2.117390945838223092e-03
3.601799383203507701e-03,-1.804076220674791209e-04,-2.117391002543278240e-03
3.601799349868287699e-03,-1.804076220425156641e-04,-2.117391059248332087e-03
3.601799316533067265e-03,-1.804076220175522614e-04,-2.117391115953386367e-03
3.601799283197845529e-03,-1.804076219925888046e-04,-2.117391172658439780e-03
3.601799249862622492e-03,-1.804076219676253477e-04,-2.117391229363492760e-03
3.601799216527399889e-03,-1.804076219426619179e-04,-2.117391286068544438e-03
3.601799183192175551e-03,-1.804076219176985153e-04,-2.117391342773596117e-03
3.601799149856950346e-03,-1.804076218927350584e-04,-2.117391399478647795e-03
3.601799116521724707e-03,-1.804076218677716286e-04,-2.117391456183697739e-03
3.601799083186496900e-03,-1.804076218428081989e-04,-2.117391512888748550e-03
3.601799049851269526e-03,-1.804076218178447420e-04,-2.117391569593798061e-03
3.601799016516040852e-03,-1.804076217928812580e-04,-2.117391626298847137e-03
3.601798983180811743e-03,-1.804076217679178283e-04,-2.117391683003895346e-03
3.601798949845580466e-03,-1.804076217429543985e-04,-2.117391739708943555e-03
3.601798916510349623e-03,-1.804076217179909688e-04,-2.117391796413991330e-03
3.601798883175117479e-03,-1.804076216930274848e-04,-2.117391853119037805e-03
3.601798849839884901e-03,-1.804076216680640550e-04,-2.117391909824084279e-03
3.601798816504650155e-03,-1.804076216431005982e-04,-2.117391966529130320e-03
3.601798783169414975e-03,-1.804076216181371684e-04,-2.117392023234175493e-03
3.601798749834179362e-03,-1.804076215931737386e-04,-2.117392079939220666e-03
3.601798716498943315e-03,-1.804076215682102547e-04,-2.117392136644264539e-03
3.601798683163705533e-03,-1.804076215432468249e-04,-2.117392193349308845e-03
3.601798649828466450e-03,-1.804076215182833680e-04,-2.117392250054351849e-03
3.601798616493227367e-03,-1.804076214933199654e-04,-2.117392306759394421e-03
3.601798583157987416e-03,-1.804076214683565085e-04,-2.117392363464436558e-03
3.601798549822745298e-03,-1.804076214433930517e-04,-2.117392420169478262e-03
3.601798516487504046e-03,-1.804076214184295677e-04,-2.117392476874519099e-03
3.601798483152261060e-03,-1.804076213934661650e-04,-2.117392533579559935e-03
3.601798449817017207e-03,-1.804076213685027082e-04,-2.117392590284599471e-03
3.601798416481772486e-03,-1.804076213435392242e-04,-2.117392646989639873e-03
3.601798383146527331e-03,-1.804076213185757944e-04,-2.117392703694678541e-03
3.601798349811280442e-03,-1.804076212936123376e-04,-2.117392760399716776e-03
3.601798316476033119e-03,-1.804076212686489078e-04,-2.117392817104754577e-03
3.601798283140785362e-03,-1.804076212436854780e-04,-2.117392873809791944e-03
3.601798249805535871e-03,-1.804076212187219941e-04,-2.117392930514828443e-03
3.601798216470285946e-03,-1.804076211937585372e-04,-2.117392987219864943e-03
3.601798183135035587e-03,-1.804076211687950803e-04,-2.117393043924901009e-03
3.601798149799783060e-03,-1.804076211438316506e-04,-2.117393100629935774e-03
3.601798116464530967e-03,-1.804076211188681937e-04,-2.117393157334970973e-03
3.601798083129277139e-03,-1.804076210939047097e-04,-2.117393214040004870e-03
3.601798049794022443e-03,-1.804076210689412800e-04,-2.117393270745038768e-03
3.601798016458766880e-03,-1.804076210439778231e-04,-2.117393327450072232e-03
3.601797983123510884e-03,-1.804076210190143663e-04,-2.117393384155103961e-03
3.601797949788253586e-03,-1.804076209940509094e-04,-2.117393440860136124e-03
3.601797916452996288e-03,-1.804076209690874525e-04,-2.117393497565167853e-03
3.601797883117737690e-03,-1.804076209441239957e-04,-2.117393554270198715e-03
3.601797849782476923e-03,-1.804076209191605659e-04,-2.117393610975229577e-03
3.601797816447216589e-03,-1.804076208941971090e-04,-2.117393667680259137e-03
3.601797783111954955e-03,-1.804076208692336251e-04,-2.117393724385288264e-03
3.601797749776692887e-03,-1.804076208442701411e-04,-2.117393781090317392e-03
3.601797716441429518e-03,-1.804076208193066842e-04,-2.117393837795345218e-03
3.601797683106164848e-03,-1.804076207943432274e-04,-2.117393894500373044e-03
3.601797649770900177e-03,-1.804076207693797705e-04,-2.117393951205400436e-03
3.601797616435633773e-03,-1.804076207444163136e-04,-2.117394007910427395e-03
3.601797583100366934e-03,-1.804076207194528568e-04,-2.117394064615453486e-03
3.601797549765099662e-03,-1.804076206944894270e-04,-2.117394121320478710e-03
3.601797516429830221e-03,-1.804076206695259430e-04,-2.117394178025504801e-03
3.601797483094560780e-03,-1.804076206445624862e-04,-2.117394234730528724e-03
3.601797449759290906e-03,-1.804076206195990022e-04,-2.117394291435553081e-03
3.601797416424019297e-03,-1.804076205946355453e-04,-2.117394348140576137e-03
3.601797383088747254e-03,-1.804076205696720885e-04,-2.117394404845599192e-03
3.601797349753474344e-03,-1.804076205447086316e-04,-2.117394461550621814e-03
3.601797316418200133e-03,-1.804076205197451747e-04,-2.117394518255643569e-03
3.601797283082925488e-03,-1.804076204947816636e-04,-2.117394574960664889e-03
3.601797249747649542e-03,-1.804076204698182339e-04,-2.117394631665685777e-03
3.601797216412372729e-03,-1.804076204448547499e-04,-2.117394688370706664e-03
3.601797183077095482e-03,-1.804076204198912931e-04,-2.117394745075726250e-03
3.601797149741816934e-03,-1.804076203949278091e-04,-2.117394801780744969e-03
3.601797116406537085e-03,-1.804076203699643522e-04,-2.117394858485763687e-03
3.601797083071256803e-03,-1.804076203450008953e-04,-2.117394915190782840e-03
3.601797049735976086e-03,-1.804076203200374114e-04,-2.117394971895799824e-03
3.601797016400694069e-03,-1.804076202950739274e-04,-2.117395028600816374e-03
3.601796983065411618e-03,-1.804076202701104976e-04,-2.117395085305833358e-03
3.601796949730127432e-03,-1.804076202451470137e-04,-2.117395142010849475e-03
3.601796916394842379e-03,-1.804076202201835839e-04,-2.117395198715865158e-03
3.601796883059557759e-03,-1.804076201952200728e-04,-2.117395255420879974e-03
3.601796849724270538e-03,-1.804076201702566160e-04,-2.117395312125894356e-03
3.601796816388984183e-03,-1.804076201452931591e-04,-2.117395368830908304e-03
3.601796783053695227e-03,-1.804076201203296751e-04,-2.117395425535922252e-03
3.601796749718406271e-03,-1.804076200953661912e-04,-2.117395482240934899e-03
3.601796716383116014e-03,-1.804076200704027614e-04,-2.117395538945947113e-03
3.601796683047825756e-03,-1.804076200454392503e-04,-2.117395595650958893e-03
3.601796649712533764e-03,-1.804076200204757393e-04,-2.117395652355969805e-03
3.601796616377241338e-03,-1.804076199955123095e-04,-2.117395709060981152e-03
3.601796583041947612e-03,-1.804076199705488255e-04,-2.117395765765991197e-03
3.601796549706652584e-03,-1.804076199455853687e-04,-2.117395822471000808e-03
3.601796516371357556e-03,-1.804076199206218576e-04,-2.117395879176009552e-03
3.601796483036061227e-03,-1.804076198956584007e-04,-2.117395935881017863e-03
3.601796449700764464e-03,-1.804076198706949438e-04,-2.117395992586026607e-03
3.601796416365466401e-03,-1.804076198457314870e-04,-2.117396049291034050e-03
3.601796383030167470e-03,-1.804076198207679759e-04,-2.117396105996040626e-03
3.601796349694868105e-03,-1.804076197958045190e-04,-2.117396162701047635e-03
3.601796316359567440e-03,-1.804076197708410622e-04,-2.117396219406053343e-03
3.601796283024266340e-03,-1.804076197458775511e-04,-2.117396276111058618e-03
3.601796249688963506e-03,-1.804076197209140671e-04,-2.117396332816063459e-03
3.601796216353659805e-03,-1.804076196959506103e-04,-2.117396389521067866e-03
3.601796183018355670e-03,-1.804076196709870992e-04,-2.117396446226071840e-03
3.601796149683051534e-03,-1.804076196460236152e-04,-2.117396502931074512e-03
3.601796116347744797e-03,-1.804076196210601583e-04,-2.117396559636077619e-03
3.601796083012438060e-03,-1.804076195960966473e-04,-2.117396616341079858e-03
3.601796049677130455e-03,-1.804076195711331904e-04,-2.117396673046081229e-03
3.601796016341821550e-03,-1.804076195461697064e-04,-2.117396729751082601e-03
3.601795983006511777e-03,-1.804076195212062496e-04,-2.117396786456083105e-03
3.601795949671202004e-03,-1.804076194962427114e-04,-2.117396843161083175e-03
3.601795916335890930e-03,-1.804076194712792816e-04,-2.117396899866082812e-03
3.601795883000578555e-03,-1.804076194463157977e-04,-2.117396956571082015e-03
3.601795849665265312e-03,-1.804076194213522866e-04,-2.117397013276080351e-03
3.601795816329951636e-03,-1.804076193963888026e-04,-2.117397069981078253e-03
3.601795782994636225e-03,-1.804076193714253457e-04,-2.117397126686075721e-03
3.601795749659321248e-03,-1.804076193464618347e-04,-2.117397183391072756e-03
3.601795716324004536e-03,-1.804076193214983507e-04,-2.117397240096069357e-03
3.601795682988686957e-03,-1.804076192965348667e-04,-2.117397296801065091e-03
3.601795649653368511e-03,-1.804076192715713556e-04,-2.117397353506059957e-03
3.601795616318048763e-03,-1.804076192466078988e-04,-2.117397410211054824e-03
3.601795582982729015e-03,-1.804076192216444148e-04,-2.117397466916048823e-03
3.601795549647407533e-03,-1.804076191966809308e-04,-2.117397523621042388e-03
3.601795516312086051e-03,-1.804076191717174469e-04,-2.117397580326035953e-03
3.601795482976763267e-03,-1.804076191467539358e-04,-2.117397637031028651e-03
3.601795449641439183e-03,-1.804076191217904518e-04,-2.117397693736020048e-03
3.601795416306114231e-03,-1.804076190968269950e-04,-2.117397750441012312e-03
3.601795382970789713e-03,-1.804076190718634839e-04,-2.117397807146003275e-03
3.601795349635462593e-03,-1.804076190468999999e-04,-2.117397863850993371e-03
3.601795316300135039e-03,-1.804076190219365159e-04,-2.117397920555983467e-03
3.601795282964807485e-03,-1.804076189969730320e-04,-2.117397977260973129e-03
3.601795249629478196e-03,-1.804076189720095209e-04,-2.117398033965962358e-03
3.601795216294148474e-03,-1.804076189470460098e-04,-2.117398090670949851e-03
3.601795182958817884e-03,-1.804076189220825258e-04,-2.117398147375937779e-03
3.601795149623485993e-03,-1.804076188971190690e-04,-2.117398204080925272e-03
3.601795116288153235e-03,-1.804076188721555308e-04,-2.117398260785912333e-03
3.601795082952820044e-03,-1.804076188471920468e-04,-2.117398317490898525e-03
3.601795049617485551e-03,-1.804076188222285629e-04,-2.117398374195883851e-03
3.601795016282150191e-03,-1.804076187972650518e-04,-2.117398430900869176e-03
3.601794982946813963e-03,-1.804076187723015678e-04,-2.117398487605854068e-03
3.601794949611476868e-03,-1.804076187473380838e-04,-2.117398544310837658e-03
3.601794916276138472e-03,-1.804076187223745999e-04,-2.117398601015821249e-03
3.601794882940800076e-03,-1.804076186974111159e-04,-2.117398657720804406e-03
3.601794849605459946e-03,-1.804076186724476048e-04,-2.117398714425786695e-03
3.601794816270119815e-03,-1.804076186474840937e-04,-2.117398771130768551e-03
3.601794782934778383e-03,-1.804076186225206098e-04,-2.117398827835749973e-03
3.601794749599436084e-03,-1.804076185975571258e-04,-2.117398884540730962e-03
3.601794716264092918e-03,-1.804076185725935876e-04,-2.117398941245711517e-03
3.601794682928748884e-03,-1.804076185476301037e-04,-2.117398997950691204e-03
3.601794649593403549e-03,-1.804076185226666197e-04,-2.117399054655670458e-03
3.601794616258057347e-03,-1.804076184977031086e-04,-2.117399111360649278e-03
3.601794582922711145e-03,-1.804076184727396246e-04,-2.117399168065627665e-03
3.601794549587363208e-03,-1.804076184477760593e-04,-2.117399224770605617e-03
3.601794516252014404e-03,-1.804076184228126025e-04,-2.117399281475582269e-03
3.601794482916665166e-03,-1.804076183978491185e-04,-2.117399338180559355e-03
3.601794449581314193e-03,-1.804076183728856074e-04,-2.117399394885535139e-03
3.601794416245963221e-03,-1.804076183479220964e-04,-2.117399451590511357e-03
3.601794382910610947e-03,-1.804076183229586124e-04,-2.117399508295486274e-03
3.601794349575258673e-03,-1.804076182979951013e-04,-2.117399565000460324e-03
3.601794316239904665e-03,-1.804076182730315902e-04,-2.117399621705434807e-03
3.601794282904549789e-03,-1.804076182480681063e-04,-2.117399678410407556e-03
3.601794249569194046e-03,-1.804076182231045681e-04,-2.117399735115381171e-03
3.601794216233837002e-03,-1.804076181981410841e-04,-2.117399791820353053e-03
3.601794182898479958e-03,-1.804076181731776001e-04,-2.117399848525325368e-03
3.601794149563121179e-03,-1.804076181482140620e-04,-2.117399905230296815e-03
3.601794116227762400e-03,-1.804076181232505780e-04,-2.117399961935266962e-03
3.601794082892401452e-03,-1.804076180982870398e-04,-2.117400018640237108e-03
3.601794049557041372e-03,-1.804076180733235829e-04,-2.117400075345207688e-03
3.601794016221679558e-03,-1.804076180483600448e-04,-2.117400132050176100e-03
3.601793982886316008e-03,-1.804076180233965337e-04,-2.117400188755144946e-03
3.601793949550952025e-03,-1.804076179984330497e-04,-2.117400245460112924e-03
3.601793916215588042e-03,-1.804076179734695386e-04,-2.117400302165080468e-03
3.601793882880222324e-03,-1.804076179485060276e-04,-2.117400358870047579e-03
3.601793849544856606e-03,-1.804076179235424894e-04,-2.117400415575014256e-03
3.601793816209488720e-03,-1.804076178985789783e-04,-2.117400472279980499e-03
3.601793782874120834e-03,-1.804076178736154943e-04,-2.117400528984945875e-03
3.601793749538751213e-03,-1.804076178486519562e-04,-2.117400585689910384e-03
3.601793716203381592e-03,-1.804076178236884451e-04,-2.117400642394874893e-03
3.601793682868011104e-03,-1.804076177987249340e-04,-2.117400699099838100e-03
3.601793649532639315e-03,-1.804076177737614229e-04,-2.117400755804802175e-03
3.601793616197266658e-03,-1.804076177487979118e-04,-2.117400812509764949e-03
3.601793582861893134e-03,-1.804076177238344279e-04,-2.117400869214727289e-03
3.601793549526519176e-03,-1.804076176988708897e-04,-2.117400925919689196e-03
3.601793516191143917e-03,-1.804076176739073786e-04,-2.117400982624649802e-03
3.601793482855767791e-03,-1.804076176489438947e-04,-2.117401039329610841e-03
3.601793449520390364e-03,-1.804076176239803836e-04,-2.117401096034571013e-03
3.601793416185012937e-03,-1.804076175990168454e-04,-2.117401152739530317e-03
3.601793382849634208e-03,-1.804076175740533343e-04,-2.117401209444489188e-03
3.601793349514253745e-03,-1.804076175490897961e-04,-2.117401266149448059e-03
3.601793316178874150e-03,-1.804076175241262851e-04,-2.117401322854406062e-03
3.601793282843491952e-03,-1.804076174991627740e-04,-2.117401379559363198e-03
3.601793249508110188e-03,-1.804076174741992629e-04,-2.117401436264320334e-03
3.601793216172726689e-03,-1.804076174492356976e-04,-2.117401492969276603e-03
3.601793182837342323e-03,-1.804076174242722137e-04,-2.117401549674232438e-03
3.601793149501957090e-03,-1.804076173993087026e-04,-2.117401606379187406e-03
3.601793116166571423e-03,-1.804076173743451644e-04,-2.117401663084142807e-03
3.601793082831184888e-03,-1.804076173493816804e-04,-2.117401719789097341e-03
3.601793049495797486e-03,-1.804076173244181422e-04,-2.117401776494051008e-03
3.601793016160409217e-03,-1.804076172994546312e-04,-2.117401833199003807e-03
3.601792982825019213e-03,-1.804076172744911472e-04,-2.117401889903956606e-03
3.601792949489628776e-03,-1.804076172495276090e-04,-2.117401946608908972e-03
3.601792916154237471e-03,-1.804076172245640708e-04,-2.117402003313860036e-03
3.601792882818845732e-03,-1.804076171996005327e-04,-2.117402060018811968e-03
3.601792849483452692e-03,-1.804076171746369945e-04,-2.117402116723762166e-03
3.601792816148059219e-03,-1.804076171496734834e-04,-2.117402173428711495e-03
3.601792782812664011e-03,-1.804076171247099723e-04,-2.117402230133661259e-03
3.601792749477267935e-03,-1.804076170997464612e-04,-2.117402286838610155e-03
3.601792716141871426e-03,-1.804076170747829231e-04,-2.117402343543558618e-03
3.601792682806473616e-03,-1.804076170498194120e-04,-2.117402400248506646e-03
3.601792649471076239e-03,-1.804076170248559009e-04,-2.117402456953453808e-03
3.601792616135676261e-03,-1.804076169998923356e-04,-2.117402513658400535e-03
3.601792582800276716e-03,-1.804076169749287974e-04,-2.117402570363347263e-03
3.601792549464875003e-03,-1.804076169499652864e-04,-2.117402627068293124e-03
3.601792516129473723e-03,-1.804076169250017753e-04,-2.117402683773238117e-03
3.601792482794070709e-03,-1.804076169000382371e-04,-2.117402740478182242e-03
3.601792449458667261e-03,-1.804076168750747260e-04,-2.117402797183126802e-03
3.601792416123262511e-03,-1.804076168501111607e-04,-2.117402853888070060e-03
3.601792382787857329e-03,-1.804076168251476497e-04,-2.117402910593013318e-03
3.601792349452451279e-03,-1.804076168001841115e-04,-2.117402967297956143e-03
3.601792316117043927e-03,-1.804076167752206004e-04,-2.117403024002898100e-03
3.601792282781635275e-03,-1.804076167502570622e-04,-2.117403080707839190e-03
3.601792249446226189e-03,-1.804076167252935512e-04,-2.117403137412780280e-03
3.601792216110817103e-03,-1.804076167003300130e-04,-2.117403194117720502e-03
3.601792182775405849e-03,-1.804076166753664748e-04,-2.117403250822661159e-03
3.601792149439994161e-03,-1.804076166504029637e-04,-2.117403307527600080e-03
3.601792116104582039e-03,-1.804076166254394255e-04,-2.117403364232538568e-03
3.601792082769168183e-03,-1.804076166004759145e-04,-2.117403420937477056e-03
3.601792049433754327e-03,-1.804076165755123221e-04,-2.117403477642415110e-03
3.601792016098339169e-03,-1.804076165505488381e-04,-2.117403534347352297e-03
3.601791982762922711e-03,-1.804076165255852999e-04,-2.117403591052289050e-03
3.601791949427505819e-03,-1.804076165006217617e-04,-2.117403647757224935e-03
3.601791916092088059e-03,-1.804076164756582236e-04,-2.117403704462160387e-03
3.601791882756668998e-03,-1.804076164506946312e-04,-2.117403761167095406e-03
3.601791849421249938e-03,-1.804076164257311472e-04,-2.117403817872030424e-03
3.601791816085829143e-03,-1.804076164007676090e-04,-2.117403874576964575e-03
3.601791782750407480e-03,-1.804076163758040979e-04,-2.117403931281897859e-03
3.601791749414985817e-03,-1.804076163508405327e-04,-2.117403987986830709e-03
3.601791716079562854e-03,-1.804076163258769945e-04,-2.117404044691763125e-03
3.601791682744138155e-03,-1.804076163009135105e-04,-2.117404101396695108e-03
3.601791649408713457e-03,-1.804076162759499181e-04,-2.117404158101626657e-03
3.601791616073287024e-03,-1.804076162509864070e-04,-2.117404214806557338e-03
3.601791582737861024e-03,-1.804076162260228689e-04,-2.117404271511487586e-03
3.601791549402433290e-03,-1.804076162010593307e-04,-2.117404328216416966e-03
3.601791516067004689e-03,-1.804076161760957654e-04,-2.117404384921346347e-03
3.601791482731575220e-03,-1.804076161511322543e-04,-2.117404441626275294e-03
3.601791449396144883e-03,-1.804076161261686890e-04,-2.117404498331203807e-03
3.601791416060713246e-03,-1.804076161012051508e-04,-2.117404555036131019e-03
3.601791382725281609e-03,-1.804076160762415856e-04,-2.117404611741058231e-03
3.601791349389848670e-03,-1.804076160512780745e-04,-2.117404668445984576e-03
3.601791316054414431e-03,-1.804076160263145092e-04,-2.117404725150910487e-03
3.601791282718979758e-03,-1.804076160013509710e-04,-2.117404781855836398e-03
3.601791249383544218e-03,-1.804076159763874057e-04,-2.117404838560761442e-03
3.601791216048107810e-03,-1.804076159514238947e-04,-2.117404895265685618e-03
3.601791182712670101e-03,-1.804076159264603294e-04,-2.117404951970609361e-03
3.601791149377231958e-03,-1.804076159014968183e-04,-2.117405008675532670e-03
3.601791116041792515e-03,-1.804076158765332259e-04,-2.117405065380455545e-03
3.601791082706352638e-03,-1.804076158515697148e-04,-2.117405122085378420e-03
3.601791049370911459e-03,-1.804076158266061766e-04,-2.117405178790299561e-03
3.601791016035470715e-03,-1.804076158016426385e-04,-2.117405235495221135e-03
3.601790982700027368e-03,-1.804076157766791003e-04,-2.117405292200141408e-03
3.601790949364584021e-03,-1.804076157517155350e-04,-2.117405348905061682e-03
3.601790916029138940e-03,-1.804076157267519968e-04,-2.117405405609981521e-03
3.601790882693694292e-03,-1.804076157017884586e-04,-2.117405462314900493e-03
3.601790849358247910e-03,-1.804076156768248933e-04,-2.117405519019819465e-03
3.601790816022800660e-03,-1.804076156518613281e-04,-2.117405575724737136e-03
3.601790782687351675e-03,-1.804076156268978170e-04,-2.117405632429654808e-03
3.601790749351903992e-03,-1.804076156019342246e-04,-2.117405689134571178e-03
3.601790716016453706e-03,-1.804076155769706864e-04,-2.117405745839487981e-03
3.601790682681003421e-03,-1.804076155520071482e-04,-2.117405802544403918e-03
3.601790649345551400e-03,-1.804076155270436100e-04,-2.117405859249319421e-03
3.601790616010098946e-03,-1.804076155020800448e-04,-2.117405915954234490e-03
3.601790582674645191e-03,-1.804076154771165066e-04,-2.117405972659149125e-03
3.601790549339191003e-03,-1.804076154521529413e-04,-2.117406029364062459e-03
3.601790516003735513e-03,-1.804076154271894031e-04,-2.117406086068975360e-03
3.601790482668279589e-03,-1.804076154022258378e-04,-2.117406142773887827e-03
3.601790449332822365e-03,-1.804076153772622996e-04,-2.117406199478800294e-03
3.601790415997365141e-03,-1.804076153522987073e-04,-2.117406256183711893e-03
3.601790382661906181e-03,-1.804076153273351691e-04,-2.117406312888623927e-03
3.601790349326446788e-03,-1.804076153023716038e-04,-2.117406369593533792e-03
3.601790315990986095e-03,-1.804076152774080656e-04,-2.117406426298444524e-03
3.601790282655524967e-03,-1.804076152524444732e-04,-2.117406483003353521e-03
3.601790249320062972e-03,-1.804076152274809350e-04,-2.117406539708262085e-03
3.601790215984599676e-03,-1.804076152025173697e-04,-2.117406596413170649e-03
3.601790182649135513e-03,-1.804076151775538858e-04,-2.117406653118078779e-03
3.601790149313670482e-03,-1.804076151525902934e-04,-2.117406709822986042e-03
3.601790115978204584e-03,-1.804076151276267552e-04,-2.117406766527892871e-03
3.601790082642737818e-03,-1.804076151026631899e-04,-2.117406823232799700e-03
3.601790049307270619e-03,-1.804076150776996246e-04,-2.117406879937704794e-03
3.601790015971801685e-03,-1.804076150527360322e-04,-2.117406936642610756e-03
3.601789982636332751e-03,-1.804076150277724399e-04,-2.117406993347515417e-03
3.601789949300862083e-03,-1.804076150028089017e-04,-2.117407050052419210e-03
3.601789915965390981e-03,-1.804076149778453364e-04,-2.117407106757323437e-03
3.601789882629919445e-03,-1.804076149528817711e-04,-2.117407163462225496e-03
3.601789849294446174e-03,-1.804076149279182058e-04,-2.117407220167129289e-03
3.601789815958972470e-03,-1.804076149029546947e-04,-2.117407276872030914e-03
3.601789782623497464e-03,-1.804076148779911023e-04,-2.117407333576932539e-03
3.601789749288022025e-03,-1.804076148530275642e-04,-2.117407390281833297e-03
3.601789715952545285e-03,-1.804076148280639718e-04,-2.117407446986734054e-03
3.601789682617068111e-03,-1.804076148031004336e-04,-2.117407503691633511e-03
3.601789649281589636e-03,-1.804076147781368683e-04,-2.117407560396532967e-03
3.601789615946110728e-03,-1.804076147531733030e-04,-2.117407617101431990e-03
3.601789582610630952e-03,-1.804076147282097648e-04,-2.117407673806330146e-03
3.601789549275150309e-03,-1.804076147032461724e-04,-2.117407730511228301e-03
3.601789515939667931e-03,-1.804076146782826072e-04,-2.117407787216125589e-03
3.601789482604185119e-03,-1.804076146533190419e-04,-2.117407843921022010e-03
3.601789449268701440e-03,-1.804076146283554766e-04,-2.117407900625918431e-03
3.601789415933216894e-03,-1.804076146033919384e-04,-2.117407957330813984e-03
3.601789382597731914e-03,-1.804076145784283460e-04,-2.117408014035709104e-03
3.601789349262245633e-03,-1.804076145534647807e-04,-2.117408070740604224e-03
3.601789315926758051e-03,-1.804076145285011883e-04,-2.117408127445498042e-03
3.601789282591270468e-03,-1.804076145035376231e-04,-2.117408184150391427e-03
3.601789249255781585e-03,-1.804076144785740849e-04,-2.117408240855284379e-03
3.601789215920291401e-03,-1.804076144536104925e-04,-2.117408297560176896e-03
3.601789182584800783e-03,-1.804076144286469272e-04,-2.117408354265068980e-03
3.601789149249309298e-03,-1.804076144036833348e-04,-2.117408410969959763e-03
3.601789115913817379e-03,-1.804076143787197966e-04,-2.117408467674850980e-03
3.601789082578323292e-03,-1.804076143537562313e-04,-2.117408524379741329e-03
3.601789049242828770e-03,-1.804076143287926932e-04,-2.117408581084631678e-03
3.601789015907334249e-03,-1.804076143038291008e-04,-2.117408637789520293e-03
3.601788982571837994e-03,-1.804076142788654813e-04,-2.117408694494409341e-03
3.601788949236341304e-03,-1.804076142539019431e-04,-2.117408751199297955e-03
3.601788915900843747e-03,-1.804076142289383507e-04,-2.117408807904185269e-03
3.601788882565344456e-03,-1.804076142039748125e-04,-2.117408864609072582e-03
3.601788849229845164e-03,-1.804076141790111930e-04,-2.117408921313958595e-03
3.601788815894344572e-03,-1.804076141540476277e-04,-2.117408978018845041e-03
3.601788782558843546e-03,-1.804076141290840353e-04,-2.117409034723730619e-03
3.601788749223341218e-03,-1.804076141041204701e-04,-2.117409091428615765e-03
3.601788715887838024e-03,-1.804076140791569048e-04,-2.117409148133499609e-03
3.601788682552333528e-03,-1.804076140541933395e-04,-2.117409204838383886e-03
3.601788649216829032e-03,-1.804076140292297471e-04,-2.117409261543267297e-03
3.601788615881323669e-03,-1.804076140042661818e-04,-2.117409318248150273e-03
3.601788582545816571e-03,-1.804076139793026165e-04,-2.117409374953032816e-03
3.601788549210309474e-03,-1.804076139543389970e-04,-2.117409431657914492e-03
3.601788515874801075e-03,-1.804076139293754588e-04,-2.117409488362795734e-03
3.601788482539291809e-03,-1.804076139044118665e-04,-2.117409545067676542e-03
3.601788449203781675e-03,-1.804076138794482741e-04,-2.117409601772556917e-03
3.601788415868269807e-03,-1.804076138544847088e-04,-2.117409658477436424e-03
3.601788382532758372e-03,-1.804076138295211164e-04,-2.117409715182315497e-03
3.601788349197245203e-03,-1.804076138045575511e-04,-2.117409771887194571e-03
3.601788315861731166e-03,-1.804076137795939587e-04,-2.117409828592072343e-03
3.601788282526216262e-03,-1.804076137546304205e-04,-2.117409885296949682e-03
3.601788249190701792e-03,-1.804076137296668010e-04,-2.117409942001827021e-03
3.601788215855184720e-03,-1.804076137047032086e-04,-2.117409998706703492e-03
3.601788182519667647e-03,-1.804076136797396162e-04,-2.117410055411579096e-03
3.601788149184148840e-03,-1.804076136547760510e-04,-2.117410112116454701e-03
3.601788115848630033e-03,-1.804076136298124315e-04,-2.117410168821329437e-03
3.601788082513109925e-03,-1.804076136048488933e-04,-2.117410225526204174e-03
3.601788049177588949e-03,-1.804076135798853009e-04,-2.117410282231078043e-03
3.601788015842067106e-03,-1.804076135549217085e-04,-2.117410338935950612e-03
3.601787982506544829e-03,-1.804076135299581161e-04,-2.117410395640824047e-03
3.601787949171021685e-03,-1.804076135049945237e-04,-2.117410452345696182e-03
3.601787915835496807e-03,-1.804076134800309584e-04,-2.117410509050567883e-03
3.601787882499971928e-03,-1.804076134550673660e-04,-2.117410565755439150e-03
3.601787849164445315e-03,-1.804076134301038008e-04,-2.117410622460309550e-03
3.601787815828918268e-03,-1.804076134051401813e-04,-2.117410679165179516e-03
3.601787782493390353e-03,-1.804076133801766160e-04,-2.117410735870049049e-03
3.601787749157861571e-03,-1.804076133552129965e-04,-2.117410792574918148e-03
3.601787715822331055e-03,-1.804076133302494312e-04,-2.117410849279786813e-03
3.601787682486800105e-03,-1.804076133052858388e-04,-2.117410905984654611e-03
3.601787649151269154e-03,-1.804076132803222464e-04,-2.117410962689522409e-03
3.601787615815737337e-03,-1.804076132553586269e-04,-2.117411019394388905e-03
3.601787582480203784e-03,-1.804076132303950616e-04,-2.117411076099255836e-03
3.601787549144668931e-03,-1.804076132054314692e-04,-2.117411132804121032e-03
3.601787515809134078e-03,-1.804076131804678768e-04,-2.117411189508986661e-03
3.601787482473598357e-03,-1.804076131555043116e-04,-2.117411246213851423e-03
3.601787449138060902e-03,-1.804076131305406921e-04,-2.117411302918715751e-03
3.601787415802523880e-03,-1.804076131055771268e-04,-2.117411359623579646e-03
3.601787382466985123e-03,-1.804076130806135073e-04,-2.117411416328442673e-03
3.601787349131445500e-03,-1.804076130556499420e-04,-2.117411473033305267e-03
3.601787315795905008e-03,-1.804076130306863225e-04,-2.117411529738167427e-03
3.601787282460363650e-03,-1.804076130057227030e-04,-2.117411586443029153e-03
3.601787249124820990e-03,-1.804076129807591377e-04,-2.117411643147890012e-03
3.601787215789278331e-03,-1.804076129557955453e-04,-2.117411699852750004e-03
3.601787182453734370e-03,-1.804076129308319529e-04,-2.117411756557610429e-03
3.601787149118189108e-03,-1.804076129058683334e-04,-2.117411813262469987e-03
3.601787115782644280e-03,-1.804076128809047681e-04,-2.117411869967329111e-03
3.601787082447096850e-03,-1.804076128559412029e-04,-2.117411926672187368e-03
3.601787049111549420e-03,-1.804076128309775563e-04,-2.117411983377045191e-03
3.601787015776001123e-03,-1.804076128060139368e-04,-2.117412040081902581e-03
3.601786982440452391e-03,-1.804076127810503715e-04,-2.117412096786759537e-03
3.601786949104901926e-03,-1.804076127560867520e-04,-2.117412153491615625e-03
3.601786915769350592e-03,-1.804076127311231867e-04,-2.117412210196470846e-03
3.601786882433798392e-03,-1.804076127061595401e-04,-2.117412266901326501e-03
3.601786849098245757e-03,-1.804076126811959748e-04,-2.117412323606181288e-03
3.601786815762692256e-03,-1.804076126562323824e-04,-2.117412380311035642e-03
3.601786782427137019e-03,-1.804076126312687629e-04,-2.117412437015888695e-03
3.601786749091581783e-03,-1.804076126063051705e-04,-2.117412493720741747e-03
3.601786715756025246e-03,-1.804076125813415781e-04,-2.117412550425594366e-03
3.601786682420468708e-03,-1.804076125563779586e-04,-2.117412607130446118e-03
3.601786649084910436e-03,-1.804076125314143391e-04,-2.117412663835297870e-03
3.601786615749351297e-03,-1.804076125064507739e-04,-2.117412720540148754e-03
3.601786582413791724e-03,-1.804076124814871273e-04,-2.117412777244998771e-03
3.601786549078229982e-03,-1.804076124565235620e-04,-2.117412833949848788e-03
3.601786515742668240e-03,-1.804076124315599425e-04,-2.117412890654698371e-03
3.601786482407105198e-03,-1.804076124065963501e-04,-2.117412947359546653e-03
3.601786449071542155e-03,-1.804076123816327577e-04,-2.117413004064395369e-03
3.601786415735977812e-03,-1.804076123566691111e-04,-2.117413060769242784e-03
3.601786382400412601e-03,-1.804076123317055187e-04,-2.117413117474090199e-03
3.601786349064846522e-03,-1.804076123067419263e-04,-2.117413174178937180e-03
3.601786315729279143e-03,-1.804076122817782797e-04,-2.117413230883783293e-03
3.601786282393710896e-03,-1.804076122568146873e-04,-2.117413287588628974e-03
3.601786249058142216e-03,-1.804076122318510949e-04,-2.117413344293473786e-03
3.601786215722572668e-03,-1.804076122068874754e-04,-2.117413400998318599e-03
3.601786182387001819e-03,-1.804076121819238559e-04,-2.117413457703162544e-03
3.601786149051430536e-03,-1.804076121569602635e-04,-2.117413514408005622e-03
3.601786115715858386e-03,-1.804076121319966440e-04,-2.117413571112848700e-03
3.601786082380285369e-03,-1.804076121070330517e-04,-2.117413627817691345e-03
3.601786049044710617e-03,-1.804076120820694593e-04,-2.117413684522533122e-03
3.601786015709135431e-03,-1.804076120571058127e-04,-2.117413741227374031e-03
3.601785982373559378e-03,-1.804076120321421932e-04,-2.117413797932214941e-03
3.601785949037982458e-03,-1.804076120071786008e-04,-2.117413854637055417e-03
3.601785915702404670e-03,-1.804076119822149813e-04,-2.117413911341895025e-03
3.601785882366826449e-03,-1.804076119572513618e-04,-2.117413968046734634e-03
3.601785849031246926e-03,-1.804076119322877423e-04,-2.117414024751572942e-03
3.601785815695666537e-03,-1.804076119073241499e-04,-2.117414081456411249e-03
3.601785782360085713e-03,-1.804076118823605304e-04,-2.117414138161248689e-03
3.601785749024503155e-03,-1.804076118573969109e-04,-2.117414194866085696e-03
3.601785715688920163e-03,-1.804076118324332643e-04,-2.117414251570922702e-03
3.601785682353336304e-03,-1.804076118074696990e-04,-2.117414308275757974e-03
3.601785649017751143e-03,-1.804076117825061066e-04,-2.117414364980594113e-03
3.601785615682165549e-03,-1.804076117575424600e-04,-2.117414421685428951e-03
3.601785582346579521e-03,-1.804076117325788405e-04,-2.117414478390262922e-03
3.601785549010991759e-03,-1.804076117076152481e-04,-2.117414535095096893e-03
3.601785515675403129e-03,-1.804076116826516015e-04,-2.117414591799930863e-03
3.601785482339813632e-03,-1.804076116576879820e-04,-2.117414648504763099e-03
3.601785449004223701e-03,-1.804076116327243897e-04,-2.117414705209595769e-03
3.601785415668632903e-03,-1.804076116077607430e-04,-2.117414761914427138e-03
3.601785382333040370e-03,-1.804076115827971236e-04,-2.117414818619258506e-03
3.601785348997448271e-03,-1.804076115578335041e-04,-2.117414875324089441e-03
3.601785315661854003e-03,-1.804076115328699117e-04,-2.117414932028919509e-03
3.601785282326259302e-03,-1.804076115079062380e-04,-2.117414988733749143e-03
3.601785248990663733e-03,-1.804076114829426185e-04,-2.117415045438577909e-03
3.601785215655067731e-03,-1.804076114579790261e-04,-2.117415102143406676e-03
3.601785182319470428e-03,-1.804076114330153795e-04,-2.117415158848235009e-03
3.601785148983871823e-03,-1.804076114080517600e-04,-2.117415215553062040e-03
3.601785115648273219e-03,-1.804076113830881676e-04,-2.117415272257889072e-03
3.601785082312673313e-03,-1.804076113581245481e-04,-2.117415328962715670e-03
3.601785048977072107e-03,-1.804076113331608744e-04,-2.117415385667541835e-03
3.601785015641471334e-03,-1.804076113081972820e-04,-2.117415442372366698e-03
3.601784982305867959e-03,-1.804076112832336625e-04,-2.117415499077191562e-03
3.601784948970264584e-03,-1.804076112582700159e-04,-2.117415555782015558e-03
3.601784915634660775e-03,-1.804076112333063964e-04,-2.117415612486839554e-03
3.601784882299055232e-03,-1.804076112083427769e-04,-2.117415669191662683e-03
3.601784848963448821e-03,-1.804076111833791574e-04,-2.117415725896485378e-03
3.601784815627841543e-03,-1.804076111584155379e-04,-2.117415782601308073e-03
3.601784782292234265e-03,-1.804076111334519184e-04,-2.117415839306129467e-03
3.601784748956624819e-03,-1.804076111084882718e-04,-2.117415896010950861e-03
3.601784715621015372e-03,-1.804076110835246252e-04,-2.117415952715770520e-03
3.601784682285405059e-03,-1.804076110585610057e-04,-2.117416009420590613e-03
3.601784648949793444e-03,-1.804076110335973862e-04,-2.117416066125411139e-03
3.601784615614180961e-03,-1.804076110086337667e-04,-2.117416122830229498e-03
3.601784582278568046e-03,-1.804076109836701201e-04,-2.117416179535048289e-03
3.601784548942953829e-03,-1.804076109587065006e-04,-2.117416236239865780e-03
3.601784515607338311e-03,-1.804076109337428540e-04,-2.117416292944683271e-03
3.601784482271722793e-03,-1.804076109087792616e-04,-2.117416349649499895e-03
3.601784448936105974e-03,-1.804076108838156150e-04,-2.117416406354316518e-03
3.601784415600488287e-03,-1.804076108588519684e-04,-2.117416463059132274e-03
3.601784382264869300e-03,-1.804076108338883760e-04,-2.117416519763947163e-03
3.601784348929250746e-03,-1.804076108089247023e-04,-2.117416576468762485e-03
3.601784315593630024e-03,-1.804076107839610557e-04,-2.117416633173576073e-03
3.601784282258008868e-03,-1.804076107589974362e-04,-2.117416689878389661e-03
3.601784248922386411e-03,-1.804076107340338167e-04,-2.117416746583202815e-03
3.601784215586763521e-03,-1.804076107090701701e-04,-2.117416803288015535e-03
3.601784182251139329e-03,-1.804076106841064964e-04,-2.117416859992827822e-03
3.601784148915514270e-03,-1.804076106591429040e-04,-2.117416916697639241e-03
3.601784115579889211e-03,-1.804076106341792574e-04,-2.117416973402450227e-03
3.601784082244262851e-03,-1.804076106092156379e-04,-2.117417030107260345e-03
3.601784048908634756e-03,-1.804076105842519913e-04,-2.117417086812070463e-03
3.601784015573006661e-03,-1.804076105592883718e-04,-2.117417143516880148e-03
3.601783982237377699e-03,-1.804076105343247252e-04,-2.117417200221688531e-03
3.601783948901747436e-03,-1.804076105093610515e-04,-2.117417256926497349e-03
3.601783915566115872e-03,-1.804076104843974591e-04,-2.117417313631305299e-03
3.601783882230484742e-03,-1.804076104594338125e-04,-2.117417370336111514e-03
3.601783848894851876e-03,-1.804076104344701659e-04,-2.117417427040918596e-03
3.601783815559217710e-03,-1.804076104095065193e-04,-2.117417483745725245e-03
3.601783782223583544e-03,-1.804076103845429269e-04,-2.117417540450530593e-03
3.601783748887947643e-03,-1.804076103595792532e-04,-2.117417597155335941e-03
3.601783715552311742e-03,-1.804076103346156066e-04,-2.117417653860139987e-03
3.601783682216674106e-03,-1.804076103096519329e-04,-2.117417710564944468e-03
3.601783648881036037e-03,-1.804076102846883405e-04,-2.117417767269747647e-03
3.601783615545397100e-03,-1.804076102597246939e-04,-2.117417823974550826e-03
3.601783582209757296e-03,-1.804076102347610473e-04,-2.117417880679353138e-03
3.601783548874116624e-03,-1.804076102097973736e-04,-2.117417937384155451e-03
3.601783515538474652e-03,-1.804076101848337541e-04,-2.117417994088956461e-03
3.601783482202832246e-03,-1.804076101598701346e-04,-2.117418050793757472e-03
3.601783448867188972e-03,-1.804076101349064609e-04,-2.117418107498557616e-03
3.601783415531545265e-03,-1.804076101099428143e-04,-2.117418164203357326e-03
3.601783382195898955e-03,-1.804076100849791948e-04,-2.117418220908156602e-03
3.601783348860253080e-03,-1.804076100600155211e-04,-2.117418277612955878e-03
3.601783315524606337e-03,-1.804076100350519016e-04,-2.117418334317753420e-03
3.601783282188958293e-03,-1.804076100100882279e-04,-2.117418391022551395e-03
3.601783248853309815e-03,-1.804076099851245813e-04,-2.117418447727348503e-03
3.601783215517660036e-03,-1.804076099601609347e-04,-2.117418504432145177e-03
3.601783182182010257e-03,-1.804076099351973152e-04,-2.117418561136941418e-03
3.601783148846357877e-03,-1.804076099102336415e-04,-2.117418617841736791e-03
3.601783115510705496e-03,-1.804076098852700220e-04,-2.117418674546531730e-03
3.601783082175051814e-03,-1.804076098603063483e-04,-2.117418731251326236e-03
3.601783048839398132e-03,-1.804076098353427288e-04,-2.117418787956120308e-03
3.601783015503742715e-03,-1.804076098103790280e-04,-2.117418844660913513e-03
3.601782982168087732e-03,-1.804076097854154085e-04,-2.117418901365706718e-03
3.601782948832430581e-03,-1.804076097604517619e-04,-2.117418958070499055e-03
3.601782915496772996e-03,-1.804076097354880882e-04,-2.117419014775290959e-03
3.601782882161114543e-03,-1.804076097105244416e-04,-2.117419071480081561e-03
3.601782848825454790e-03,-1.804076096855607950e-04,-2.117419128184872597e-03
3.601782815489794603e-03,-1.804076096605971755e-04,-2.117419184889663200e-03
3.601782782154133115e-03,-1.804076096356335018e-04,-2.117419241594452502e-03
3.601782748818471193e-03,-1.804076096106698552e-04,-2.117419298299241370e-03
3.601782715482807970e-03,-1.804076095857061544e-04,-2.117419355004030238e-03
3.601782682147144747e-03,-1.804076095607425078e-04,-2.117419411708818238e-03
3.601782648811479356e-03,-1.804076095357788612e-04,-2.117419468413606239e-03
3.601782615475813965e-03,-1.804076095108152417e-04,-2.117419525118392504e-03
3.601782582140148140e-03,-1.804076094858515409e-04,-2.117419581823178770e-03
3.601782548804480146e-03,-1.804076094608878943e-04,-2.117419638527964602e-03
3.601782515468811719e-03,-1.804076094359242748e-04,-2.117419695232750868e-03
3.601782482133142425e-03,-1.804076094109606011e-04,-2.117419751937535399e-03
3.601782448797472263e-03,-1.804076093859969274e-04,-2.117419808642319930e-03
3.601782415461801667e-03,-1.804076093610332537e-04,-2.117419865347104028e-03
3.601782382126129771e-03,-1.804076093360696071e-04,-2.117419922051886824e-03
3.601782348790457007e-03,-1.804076093111059063e-04,-2.117419978756669621e-03
3.601782315454782942e-03,-1.804076092861423139e-04,-2.117420035461451983e-03
3.601782282119108877e-03,-1.804076092611786402e-04,-2.117420092166233045e-03
3.601782248783433511e-03,-1.804076092362149936e-04,-2.117420148871014107e-03
3.601782215447757278e-03,-1.804076092112513198e-04,-2.117420205575795602e-03
3.601782182112080177e-03,-1.804076091862876461e-04,-2.117420262280575362e-03
3.601782148776401342e-03,-1.804076091613239995e-04,-2.117420318985355123e-03
3.601782115440722940e-03,-1.804076091363603258e-04,-2.117420375690134016e-03
3.601782082105042804e-03,-1.804076091113966792e-04,-2.117420432394912042e-03
3.601782048769361800e-03,-1.804076090864329784e-04,-2.117420489099690502e-03
3.601782015433680796e-03,-1.804076090614693318e-04,-2.117420545804467660e-03
3.601781982097997624e-03,-1.804076090365056581e-04,-2.117420602509244385e-03
3.601781948762314452e-03,-1.804076090115420386e-04,-2.117420659214020676e-03
3.601781915426630412e-03,-1.804076089865783378e-04,-2.117420715918796967e-03
3.601781882090944638e-03,-1.804076089616146912e-04,-2.117420772623571958e-03
3.601781848755259297e-03,-1.804076089366509904e-04,-2.117420829328347381e-03
3.601781815419572222e-03,-1.804076089116873980e-04,-2.117420886033120637e-03
3.601781782083884279e-03,-1.804076088867236972e-04,-2.117420942737894760e-03
3.601781748748195469e-03,-1.804076088617600235e-04,-2.117420999442668015e-03
3.601781715412506225e-03,-1.804076088367963498e-04,-2.117421056147440403e-03
3.601781682076815247e-03,-1.804076088118326761e-04,-2.117421112852212357e-03
3.601781648741123835e-03,-1.804076087868690024e-04,-2.117421169556983878e-03
3.601781615405431555e-03,-1.804076087619053829e-04,-2.117421226261755399e-03
3.601781582069737975e-03,-1.804076087369416821e-04,-2.117421282966526052e-03
3.601781548734043960e-03,-1.804076087119780355e-04,-2.117421339671295404e-03
3.601781515398349079e-03,-1.804076086870143346e-04,-2.117421396376065190e-03
3.601781482062653330e-03,-1.804076086620506609e-04,-2.117421453080834109e-03
3.601781448726957147e-03,-1.804076086370869872e-04,-2.117421509785602594e-03
3.601781415391259664e-03,-1.804076086121233406e-04,-2.117421566490370211e-03
3.601781382055560879e-03,-1.804076085871596669e-04,-2.117421623195137395e-03
3.601781348719861227e-03,-1.804076085621960203e-04,-2.117421679899904145e-03
3.601781315384161141e-03,-1.804076085372323195e-04,-2.117421736604670895e-03
3.601781282048459321e-03,-1.804076085122686458e-04,-2.117421793309436345e-03
3.601781248712757934e-03,-1.804076084873049450e-04,-2.117421850014201360e-03
3.601781215377054812e-03,-1.804076084623413255e-04,-2.117421906718966376e-03
3.601781182041351257e-03,-1.804076084373776247e-04,-2.117421963423730524e-03
3.601781148705646401e-03,-1.804076084124139510e-04,-2.117422020128493804e-03
3.601781115369940243e-03,-1.804076083874502773e-04,-2.117422076833257085e-03
3.601781082034234520e-03,-1.804076083624865765e-04,-2.117422133538019498e-03
3.601781048698526628e-03,-1.804076083375229299e-04,-2.117422190242781478e-03
3.601781015362818302e-03,-1.804076083125592562e-04,-2.117422246947542590e-03
3.601780982027109543e-03,-1.804076082875955825e-04,-2.117422303652303703e-03
3.601780948691399049e-03,-1.804076082626319087e-04,-2.117422360357063948e-03
3.601780915355688121e-03,-1.804076082376682350e-04,-2.117422417061823759e-03
3.601780882019976759e-03,-1.804076082127045342e-04,-2.117422473766582703e-03
3.601780848684264097e-03,-1.804076081877408605e-04,-2.117422530471341647e-03
3.601780815348550567e-03,-1.804076081627771597e-04,-2.117422587176100157e-03
3.601780782012835302e-03,-1.804076081378135131e-04,-2.117422643880857366e-03
3.601780748677120472e-03,-1.804076081128498394e-04,-2.117422700585615009e-03
3.601780715341404340e-03,-1.804076080878861657e-04,-2.117422757290371785e-03
3.601780682005686907e-03,-1.804076080629224649e-04,-2.117422813995127693e-03
3.601780648669968606e-03,-1.804076080379587912e-04,-2.117422870699883167e-03
3.601780615334249872e-03,-1.804076080129951175e-04,-2.117422927404638642e-03
3.601780581998530271e-03,-1.804076079880314167e-04,-2.117422984109392815e-03
3.601780548662809368e-03,-1.804076079630677701e-04,-2.117423040814146555e-03
3.601780515327088032e-03,-1.804076079381040421e-04,-2.117423097518900729e-03
3.601780481991365395e-03,-1.804076079131403684e-04,-2.117423154223653601e-03
3.601780448655641891e-03,-1.804076078881766947e-04,-2.117423210928405172e-03
3.601780415319917519e-03,-1.804076078632130210e-04,-2.117423267633157611e-03
3.601780381984193147e-03,-1.804076078382493473e-04,-2.117423324337908749e-03
3.601780348648467040e-03,-1.804076078132856465e-04,-2.117423381042659886e-03
3.601780315312739632e-03,-1.804076077883219457e-04,-2.117423437747409289e-03
3.601780281977011357e-03,-1.804076077633582720e-04,-2.117423494452159560e-03
3.601780248641283082e-03,-1.804076077383945983e-04,-2.117423551156908963e-03
3.601780215305553073e-03,-1.804076077134308975e-04,-2.117423607861657498e-03
3.601780181969823063e-03,-1.804076076884671967e-04,-2.117423664566405166e-03
3.601780148634091752e-03,-1.804076076635035501e-04,-2.117423721271152835e-03
3.601780115298358707e-03,-1.804076076385398492e-04,-2.117423777975900069e-03
3.601780081962626529e-03,-1.804076076135761484e-04,-2.117423834680646870e-03
3.601780048626892182e-03,-1.804076075886124747e-04,-2.117423891385392803e-03
3.601780015291156968e-03,-1.804076075636488010e-04,-2.117423948090138303e-03
3.601779981955420887e-03,-1.804076075386851002e-04,-2.117424004794882936e-03
3.601779948619684805e-03,-1.804076075137213994e-04,-2.117424061499627568e-03
3.601779915283946990e-03,-1.804076074887576986e-04,-2.117424118204371333e-03
3.601779881948208740e-03,-1.804076074637940249e-04,-2.117424174909114665e-03
3.601779848612468755e-03,-1.804076074388303241e-04,-2.117424231613857562e-03
3.601779815276728771e-03,-1.804076074138666233e-04,-2.117424288318599593e-03
3.601779781940987486e-03,-1.804076073889029496e-04,-2.117424345023341623e-03
3.601779748605245333e-03,-1.804076073639392758e-04,-2.117424401728082786e-03
3.601779715269502746e-03,-1.804076073389755750e-04,-2.117424458432823516e-03
3.601779681933759292e-03,-1.804076073140118742e-04,-2.117424515137563377e-03
3.601779648598014538e-03,-1.804076072890481734e-04,-2.117424571842302806e-03
3.601779615262269349e-03,-1.804076072640844726e-04,-2.117424628547041800e-03
3.601779581926522426e-03,-1.804076072391207718e-04,-2.117424685251780361e-03
3.601779548590775502e-03,-1.804076072141570710e-04,-2.117424741956518489e-03
3.601779515255026844e-03,-1.804076071891933973e-04,-2.117424798661256182e-03
3.601779481919277753e-03,-1.804076071642297236e-04,-2.117424855365993008e-03
3.601779448583527360e-03,-1.804076071392659685e-04,-2.117424912070729401e-03
3.601779415247776533e-03,-1.804076071143023219e-04,-2.117424968775465360e-03
3.601779381912024406e-03,-1.804076070893386211e-04,-2.117425025480200451e-03
3.601779348576271845e-03,-1.804076070643748932e-04,-2.117425082184935109e-03
3.601779315240518850e-03,-1.804076070394112195e-04,-2.117425138889669333e-03
3.601779281904764120e-03,-1.804076070144475187e-04,-2.117425195594403557e-03
3.601779248569008524e-03,-1.804076069894838179e-04,-2.117425252299136914e-03
3.601779215233252493e-03,-1.804076069645201171e-04,-2.117425309003869403e-03
3.601779181897495595e-03,-1.804076069395564163e-04,-2.117425365708601459e-03
3.601779148561737830e-03,-1.804076069145927155e-04,-2.117425422413333081e-03
3.601779115225978330e-03,-1.804076068896290146e-04,-2.117425479118063836e-03
3.601779081890218830e-03,-1.804076068646652867e-04,-2.117425535822794157e-03
3.601779048554458029e-03,-1.804076068397016401e-04,-2.117425592527524911e-03
3.601779015218696360e-03,-1.804076068147379393e-04,-2.117425649232254365e-03
3.601778981882933824e-03,-1.804076067897742114e-04,-2.117425705936982951e-03
3.601778948547170855e-03,-1.804076067648105106e-04,-2.117425762641711538e-03
3.601778915211406584e-03,-1.804076067398467827e-04,-2.117425819346439690e-03
3.601778881875641013e-03,-1.804076067148830819e-04,-2.117425876051166975e-03
3.601778848539875441e-03,-1.804076066899194081e-04,-2.117425932755893393e-03
3.601778815204108568e-03,-1.804076066649556802e-04,-2.117425989460620245e-03
3.601778781868340395e-03,-1.804076066399919794e-04,-2.117426046165345795e-03
3.601778748532571787e-03,-1.804076066150282786e-04,-2.117426102870070912e-03
3.601778715196802313e-03,-1.804076065900645507e-04,-2.117426159574795595e-03
3.601778681861032404e-03,-1.804076065651008499e-04,-2.117426216279519845e-03
3.601778648525260328e-03,-1.804076065401371491e-04,-2.117426272984243227e-03
3.601778615189488685e-03,-1.804076065151734212e-04,-2.117426329688966175e-03
3.601778581853715307e-03,-1.804076064902097203e-04,-2.117426386393688690e-03
3.601778548517941062e-03,-1.804076064652460466e-04,-2.117426443098410771e-03
3.601778515182166383e-03,-1.804076064402823187e-04,-2.117426499803132418e-03
3.601778481846390836e-03,-1.804076064153186179e-04,-2.117426556507853198e-03
3.601778448510613555e-03,-1.804076063903549171e-04,-2.117426613212573978e-03
3.601778415174836274e-03,-1.804076063653911892e-04,-2.117426669917293457e-03
3.601778381839058126e-03,-1.804076063404274884e-04,-2.117426726622012936e-03
3.601778348503278677e-03,-1.804076063154637876e-04,-2.117426783326731982e-03
3.601778315167498360e-03,-1.804076062905000596e-04,-2.117426840031450593e-03
3.601778281831717176e-03,-1.804076062655363588e-04,-2.117426896736168337e-03
3.601778248495935558e-03,-1.804076062405726309e-04,-2.117426953440884781e-03
3.601778215160152206e-03,-1.804076062156089030e-04,-2.117427010145602091e-03
3.601778181824368853e-03,-1.804076061906452022e-04,-2.117427066850318534e-03
3.601778148488584633e-03,-1.804076061656815014e-04,-2.117427123555033677e-03
3.601778115152798679e-03,-1.804076061407178006e-04,-2.117427180259748385e-03
3.601778081817012291e-03,-1.804076061157540726e-04,-2.117427236964463094e-03
3.601778048481224168e-03,-1.804076060907903447e-04,-2.117427293669177802e-03
3.601778015145436045e-03,-1.804076060658266439e-04,-2.117427350373890776e-03
3.601777981809647054e-03,-1.804076060408629160e-04,-2.117427407078603316e-03
3.601777948473857630e-03,-1.804076060158992423e-04,-2.117427463783315856e-03
3.601777915138066472e-03,-1.804076059909355144e-04,-2.117427520488027529e-03
3.601777881802275313e-03,-1.804076059659717865e-04,-2.117427577192739635e-03
3.601777848466482419e-03,-1.804076059410080857e-04,-2.117427633897450440e-03
3.601777815130688225e-03,-1.804076059160443577e-04,-2.117427690602160378e-03
3.601777781794894464e-03,-1.804076058910806298e-04,-2.117427747306870316e-03
3.601777748459098968e-03,-1.804076058661169290e-04,-2.117427804011579821e-03
3.601777715123303039e-03,-1.804076058411531740e-04,-2.117427860716288458e-03
3.601777681787505375e-03,-1.804076058161894732e-04,-2.117427917420996661e-03
3.601777648451707278e-03,-1.804076057912257724e-04,-2.117427974125704430e-03
3.601777615115909180e-03,-1.804076057662620444e-04,-2.117428030830411333e-03
3.601777581780108480e-03,-1.804076057412983165e-04,-2.117428087535117801e-03
3.601777548444308214e-03,-1.804076057163345886e-04,-2.117428144239824270e-03
3.601777515108507081e-03,-1.804076056913708607e-04,-2.117428200944529871e-03
3.601777481772704646e-03,-1.804076056664071599e-04,-2.117428257649234605e-03
3.601777448436901344e-03,-1.804076056414434320e-04,-2.117428314353938471e-03
3.601777415101096742e-03,-1.804076056164797312e-04,-2.117428371058642771e-03
3.601777381765291705e-03,-1.804076055915159761e-04,-2.117428427763345770e-03
3.601777348429485801e-03,-1.804076055665522753e-04,-2.117428484468049203e-03
3.601777315093679030e-03,-1.804076055415885474e-04,-2.117428541172751335e-03
3.601777281757871391e-03,-1.804076055166248195e-04,-2.117428597877452599e-03
3.601777248422062452e-03,-1.804076054916610916e-04,-2.117428654582154297e-03
3.601777215086252645e-03,-1.804076054666973637e-04,-2.117428711286855128e-03
3.601777181750442838e-03,-1.804076054417336357e-04,-2.117428767991555091e-03
3.601777148414631296e-03,-1.804076054167699078e-04,-2.117428824696254621e-03
3.601777115078819320e-03,-1.804076053918061528e-04,-2.117428881400953717e-03
3.601777081743005610e-03,-1.804076053668424520e-04,-2.117428938105652813e-03
3.601777048407192768e-03,-1.804076053418787241e-04,-2.117428994810350608e-03
3.601777015071377323e-03,-1.804076053169150233e-04,-2.117429051515047969e-03
3.601776981735561444e-03,-1.804076052919512682e-04,-2.117429108219745330e-03
3.601776948399744698e-03,-1.804076052669875403e-04,-2.117429164924441824e-03
3.601776915063927085e-03,-1.804076052420237853e-04,-2.117429221629137017e-03
3.601776881728109472e-03,-1.804076052170600845e-04,-2.117429278333833077e-03
3.601776848392289690e-03,-1.804076051920963295e-04,-2.117429335038526969e-03
3.601776815056469475e-03,-1.804076051671326016e-04,-2.117429391743222162e-03
3.601776781720647958e-03,-1.804076051421688736e-04,-2.117429448447915620e-03
3.601776748384826442e-03,-1.804076051172051728e-04,-2.117429505152609078e-03
3.601776715049003624e-03,-1.804076050922414178e-04,-2.117429561857301669e-03
3.601776681713179940e-03,-1.804076050672776899e-04,-2.117429618561994260e-03
3.601776648377355387e-03,-1.804076050423139349e-04,-2.117429675266685549e-03
3.601776615041529968e-03,-1.804076050173502070e-04,-2.117429731971377273e-03
3.601776581705702814e-03,-1.804076049923865061e-04,-2.117429788676067261e-03
3.601776548369876093e-03,-1.804076049674227511e-04,-2.117429845380757250e-03
3.601776515034048505e-03,-1.804076049424590232e-04,-2.117429902085446805e-03
3.601776481698219182e-03,-1.804076049174952953e-04,-2.117429958790135926e-03
3.601776448362388992e-03,-1.804076048925315674e-04,-2.117430015494824180e-03
3.601776415026558369e-03,-1.804076048675678124e-04,-2.117430072199512434e-03
3.601776381690726010e-03,-1.804076048426040573e-04,-2.117430128904200255e-03
3.601776348354893652e-03,-1.804076048176403294e-04,-2.117430185608886774e-03
3.601776315019060426e-03,-1.804076047926766015e-04,-2.117430242313572859e-03
3.601776281683225899e-03,-1.804076047677128736e-04,-2.117430299018258945e-03
3.601776248347390505e-03,-1.804076047427491457e-04,-2.117430355722943729e-03
3.601776215011555111e-03,-1.804076047177853906e-04,-2.117430412427628948e-03
3.601776181675717114e-03,-1.804076046928216356e-04,-2.117430469132312865e-03
3.601776148339879552e-03,-1.804076046678579077e-04,-2.117430525836996782e-03
3.601776115004040688e-03,-1.804076046428941798e-04,-2.117430582541680265e-03
3.601776081668200957e-03,-1.804076046179304519e-04,-2.117430639246362448e-03
3.601776048332359925e-03,-1.804076045929666697e-04,-2.117430695951045064e-03
3.601776014996518026e-03,-1.804076045680029689e-04,-2.117430752655726379e-03
3.601775981660676560e-03,-1.804076045430392410e-04,-2.117430809360406826e-03
3.601775948324832492e-03,-1.804076045180755131e-04,-2.117430866065087708e-03
3.601775914988988424e-03,-1.804076044931117581e-04,-2.117430922769767722e-03
3.601775881653143923e-03,-1.804076044681479760e-04,-2.117430979474446869e-03
3.601775848317298120e-03,-1.804076044431842480e-04,-2.117431036179126015e-03
3.601775814981451017e-03,-1.804076044182205201e-04,-2.117431092883803861e-03
3.601775781645603480e-03,-1.804076043932567651e-04,-2.117431149588481706e-03
3.601775748309754641e-03,-1.804076043682930372e-04,-2.117431206293159118e-03
3.601775714973905369e-03,-1.804076043433292551e-04,-2.117431262997835663e-03
3.601775681638054363e-03,-1.804076043183655000e-04,-2.117431319702512207e-03
3.601775648302203356e-03,-1.804076042934017721e-04,-2.117431376407187885e-03
3.601775614966351482e-03,-1.804076042684380442e-04,-2.117431433111863128e-03
3.601775581630498307e-03,-1.804076042434742621e-04,-2.117431489816537504e-03
3.601775548294644264e-03,-1.804076042185105342e-04,-2.117431546521211447e-03
3.601775514958789354e-03,-1.804076041935468062e-04,-2.117431603225885389e-03
3.601775481622934445e-03,-1.804076041685830241e-04,-2.117431659930557597e-03
3.601775448287077366e-03,-1.804076041436192962e-04,-2.117431716635230672e-03
3.601775414951220288e-03,-1.804076041186555683e-04,-2.117431773339902880e-03
3.601775381615361475e-03,-1.804076040936917862e-04,-2.117431830044573787e-03
3.601775348279501795e-03,-1.804076040687280582e-04,-2.117431886749245127e-03
3.601775314943642115e-03,-1.804076040437643032e-04,-2.117431943453915600e-03
3.601775281607781133e-03,-1.804076040188005482e-04,-2.117432000158584772e-03
3.601775248271918417e-03,-1.804076039938368203e-04,-2.117432056863254811e-03
3.601775214936056135e-03,-1.804076039688730382e-04,-2.117432113567923116e-03
3.601775181600192551e-03,-1.804076039439093102e-04,-2.117432170272591421e-03
3.601775148264327667e-03,-1.804076039189455552e-04,-2.117432226977258858e-03
3.601775114928462782e-03,-1.804076038939818273e-04,-2.117432283681925861e-03
3.601775081592596163e-03,-1.804076038690180452e-04,-2.117432340386592865e-03
3.601775048256728676e-03,-1.804076038440543173e-04,-2.117432397091258568e-03
3.601775014920860756e-03,-1.804076038190905080e-04,-2.117432453795924704e-03
3.601774981584991969e-03,-1.804076037941267801e-04,-2.117432510500589539e-03
3.601774948249122314e-03,-1.804076037691629980e-04,-2.117432567205253940e-03
3.601774914913251358e-03,-1.804076037441992701e-04,-2.117432623909917908e-03
3.601774881577379100e-03,-1.804076037192355150e-04,-2.117432680614581442e-03
3.601774848241506410e-03,-1.804076036942717329e-04,-2.117432737319244109e-03
3.601774814905632852e-03,-1.804076036693080050e-04,-2.117432794023906342e-03
3.601774781569758860e-03,-1.804076036443442500e-04,-2.117432850728568142e-03
3.601774748233883567e-03,-1.804076036193804950e-04,-2.117432907433229941e-03
3.601774714898007840e-03,-1.804076035944167399e-04,-2.117432964137890439e-03
3.601774681562130379e-03,-1.804076035694529849e-04,-2.117433020842550504e-03
3.601774648226252484e-03,-1.804076035444892299e-04,-2.117433077547210569e-03
3.601774614890373288e-03,-1.804076035195254749e-04,-2.117433134251869766e-03
3.601774581554493659e-03,-1.804076034945617199e-04,-2.117433190956528096e-03
3.601774548218613162e-03,-1.804076034695979106e-04,-2.117433247661185992e-03
3.601774514882731797e-03,-1.804076034446341827e-04,-2.117433304365843455e-03
3.601774481546849999e-03,-1.804076034196704277e-04,-2.117433361070500484e-03
3.601774448210966467e-03,-1.804076033947066456e-04,-2.117433417775157513e-03
3.601774414875082066e-03,-1.804076033697428634e-04,-2.117433474479813241e-03
3.601774381539196799e-03,-1.804076033447791355e-04,-2.117433531184468535e-03
3.601774348203311098e-03,-1.804076033198153805e-04,-2.117433587889123829e-03
3.601774314867424095e-03,-1.804076032948515984e-04,-2.117433644593778256e-03
3.601774281531536660e-03,-1.804076032698878433e-04,-2.117433701298431815e-03
3.601774248195648356e-03,-1.804076032449240612e-04,-2.117433758003085809e-03
3.601774214859758752e-03,-1.804076032199603333e-04,-2.117433814707738501e-03
3.601774181523868280e-03,-1.804076031949965241e-04,-2.117433871412390325e-03
3.601774148187977375e-03,-1.804076031700327690e-04,-2.117433928117042150e-03
3.601774114852085602e-03,-1.804076031450690411e-04,-2.117433984821693108e-03
3.601774081516192529e-03,-1.804076031201052590e-04,-2.117434041526343631e-03
3.601774048180298154e-03,-1.804076030951414769e-04,-2.117434098230993721e-03
3.601774014844403779e-03,-1.804076030701776948e-04,-2.117434154935643811e-03
3.601773981508507669e-03,-1.804076030452139668e-04,-2.117434211640292600e-03
3.601773948172610693e-03,-1.804076030202501847e-04,-2.117434268344941389e-03
3.601773914836714149e-03,-1.804076029952864297e-04,-2.117434325049588444e-03
3.601773881500815871e-03,-1.804076029703226205e-04,-2.117434381754236365e-03
3.601773848164915859e-03,-1.804076029453588654e-04,-2.117434438458883419e-03
3.601773814829015846e-03,-1.804076029203951104e-04,-2.117434495163530040e-03
3.601773781493115400e-03,-1.804076028954313554e-04,-2.117434551868175360e-03
3.601773748157212785e-03,-1.804076028704675733e-04,-2.117434608572821113e-03
3.601773714821310604e-03,-1.804076028455037911e-04,-2.117434665277465999e-03
3.601773681485407122e-03,-1.804076028205400361e-04,-2.117434721982109583e-03
3.601773648149502339e-03,-1.804076027955762540e-04,-2.117434778686753602e-03
3.601773614813597122e-03,-1.804076027706124990e-04,-2.117434835391396753e-03
3.601773581477691038e-03,-1.804076027456486897e-04,-2.117434892096039471e-03
3.601773548141783219e-03,-1.804076027206849347e-04,-2.117434948800682188e-03
3.601773514805874966e-03,-1.804076026957211526e-04,-2.117435005505323171e-03
3.601773481469965846e-03,-1.804076026707573705e-04,-2.117435062209964587e-03
3.601773448134056293e-03,-1.804076026457936154e-04,-2.117435118914604703e-03
3.601773414798145872e-03,-1.804076026208298333e-04,-2.117435175619244818e-03
3.601773381462234150e-03,-1.804076025958660783e-04,-2.117435232323884066e-03
3.601773348126321994e-03,-1.804076025709022691e-04,-2.117435289028523314e-03
3.601773314790408104e-03,-1.804076025459385140e-04,-2.117435345733161695e-03
3.601773281454493346e-03,-1.804076025209747319e-04,-2.117435402437799642e-03
3.601773248118577721e-03,-1.804076024960109769e-04,-2.117435459142436721e-03
3.601773214782662529e-03,-1.804076024710471677e-04,-2.117435515847072933e-03
3.601773181446745603e-03,-1.804076024460833855e-04,-2.117435572551710013e-03
3.601773148110827810e-03,-1.804076024211196305e-04,-2.117435629256345792e-03
3.601773114774908281e-03,-1.804076023961558484e-04,-2.117435685960980703e-03
3.601773081438989187e-03,-1.804076023711920663e-04,-2.117435742665615180e-03
3.601773048103068357e-03,-1.804076023462282841e-04,-2.117435799370249658e-03
3.601773014767146661e-03,-1.804076023212644749e-04,-2.117435856074883268e-03
3.601772981431224964e-03,-1.804076022963007199e-04,-2.117435912779515577e-03
3.601772948095301099e-03,-1.804076022713369378e-04,-2.117435969484149187e-03
3.601772914759377234e-03,-1.804076022463731827e-04,-2.117436026188780629e-03
3.601772881423452068e-03,-1.804076022214093735e-04,-2.117436082893412071e-03
3.601772848087526901e-03,-1.804076021964455914e-04,-2.117436139598043079e-03
3.601772814751599567e-03,-1.804076021714818092e-04,-2.117436196302673653e-03
3.601772781415671799e-03,-1.804076021465180271e-04,-2.117436253007302926e-03
3.601772748079744031e-03,-1.804076021215542721e-04,-2.117436309711932634e-03
3.601772714743814528e-03,-1.804076020965904629e-04,-2.117436366416561473e-03
3.601772681407883724e-03,-1.804076020716266807e-04,-2.117436423121190313e-03
3.601772648071952486e-03,-1.804076020466629257e-04,-2.117436479825817418e-03
3.601772614736019947e-03,-1.804076020216991165e-04,-2.117436536530444956e-03
3.601772581400087842e-03,-1.804076019967353073e-04,-2.117436593235071628e-03
3.601772548064153569e-03,-1.804076019717715251e-04,-2.117436649939697865e-03
3.601772514728218862e-03,-1.804076019468077972e-04,-2.117436706644323235e-03
3.601772481392283721e-03,-1.804076019218439880e-04,-2.117436763348947738e-03
3.601772448056347713e-03,-1.804076018968801787e-04,-2.117436820053572241e-03
3.601772414720409536e-03,-1.804076018719164237e-04,-2.117436876758196744e-03
3.601772381384471793e-03,-1.804076018469525874e-04,-2.117436933462820380e-03
3.601772348048532316e-03,-1.804076018219888053e-04,-2.117436990167443148e-03
3.601772314712591971e-03,-1.804076017970250502e-04,-2.117437046872065916e-03
3.601772281376650758e-03,-1.804076017720612410e-04,-2.117437103576687817e-03
3.601772248040709112e-03,-1.804076017470974589e-04,-2.117437160281308850e-03
3.601772214704766165e-03,-1.804076017221336768e-04,-2.117437216985929450e-03
3.601772181368822351e-03,-1.804076016971698946e-04,-2.117437273690550049e-03
3.601772148032878103e-03,-1.804076016722060583e-04,-2.117437330395169782e-03
3.601772114696932987e-03,-1.804076016472422762e-04,-2.117437387099789080e-03
3.601772081360986571e-03,-1.804076016222784669e-04,-2.117437443804407512e-03
3.601772048025039287e-03,-1.804076015973146848e-04,-2.117437500509025509e-03
3.601772014689091136e-03,-1.804076015723509298e-04,-2.117437557213643507e-03
3.601771981353142551e-03,-1.804076015473870935e-04,-2.117437613918260204e-03
3.601771948017192231e-03,-1.804076015224233113e-04,-2.117437670622876900e-03
3.601771914681241912e-03,-1.804076014974595292e-04,-2.117437727327492730e-03
3.601771881345289857e-03,-1.804076014724957200e-04,-2.117437784032108559e-03
3.601771848009337369e-03,-1.804076014475319378e-04,-2.117437840736723521e-03
3.601771814673384448e-03,-1.804076014225681015e-04,-2.117437897441338049e-03
3.601771781337430225e-03,-1.804076013976043465e-04,-2.117437954145952143e-03
3.601771748001474267e-03,-1.804076013726405915e-04,-2.117438010850564937e-03
3.601771714665518744e-03,-1.804076013476767822e-04,-2.117438067555178164e-03
3.601771681329561919e-03,-1.804076013227129730e-04,-2.117438124259790090e-03
3.601771647993603793e-03,-1.804076012977491909e-04,-2.117438180964402016e-03
3.601771614657644800e-03,-1.804076012727853545e-04,-2.117438237669013509e-03
3.601771581321685373e-03,-1.804076012478215724e-04,-2.117438294373623700e-03
3.601771547985724645e-03,-1.804076012228577903e-04,-2.117438351078234325e-03
3.601771514649763483e-03,-1.804076011978939811e-04,-2.117438407782843649e-03
3.601771481313801454e-03,-1.804076011729301447e-04,-2.117438464487452539e-03
3.601771447977838124e-03,-1.804076011479663355e-04,-2.117438521192061430e-03
3.601771414641873493e-03,-1.804076011230025263e-04,-2.117438577896669453e-03
3.601771381305909295e-03,-1.804076010980387441e-04,-2.117438634601276608e-03
3.601771347969943363e-03,-1.804076010730749620e-04,-2.117438691305883764e-03
3.601771314633976564e-03,-1.804076010481111799e-04,-2.117438748010490052e-03
3.601771281298009331e-03,-1.804076010231473977e-04,-2.117438804715096341e-03
3.601771247962040363e-03,-1.804076009981835614e-04,-2.117438861419701328e-03
3.601771214626071395e-03,-1.804076009732197522e-04,-2.117438918124306315e-03
3.601771181290100692e-03,-1.804076009482559429e-04,-2.117438974828910435e-03
3.601771147954129556e-03,-1.804076009232921608e-04,-2.117439031533514555e-03
3.601771114618157986e-03,-1.804076008983283245e-04,-2.117439088238117807e-03
3.601771081282184248e-03,-1.804076008733645424e-04,-2.117439144942720192e-03
3.601771047946210943e-03,-1.804076008484007060e-04,-2.117439201647322577e-03
3.601771014610236337e-03,-1.804076008234369239e-04,-2.117439258351924095e-03
3.601770981274260864e-03,-1.804076007984731147e-04,-2.117439315056524746e-03
3.601770947938284090e-03,-1.804076007735093325e-04,-2.117439371761125830e-03
3.601770914602306882e-03,-1.804076007485454962e-04,-2.117439428465726046e-03
3.601770881266328373e-03,-1.804076007235816870e-04,-2.117439485170325396e-03
3.601770847930349431e-03,-1.804076006986179048e-04,-2.117439541874923878e-03
3.601770814594368753e-03,-1.804076006736540956e-04,-2.117439598579522794e-03
3.601770781258388943e-03,-1.804076006486902593e-04,-2.117439655284120408e-03
3.601770747922406531e-03,-1.804076006237264771e-04,-2.117439711988717589e-03
3.601770714586423686e-03,-1.804076005987626408e-04,-2.117439768693314770e-03
3.601770681250439973e-03,-1.804076005737988316e-04,-2.117439825397911084e-03
3.601770647914455392e-03,-1.804076005488350223e-04,-2.117439882102506964e-03
3.601770614578469944e-03,-1.804076005238712402e-04,-2.117439938807102410e-03
3.601770581242484063e-03,-1.804076004989074039e-04,-2.117439995511696989e-03
3.601770547906496880e-03,-1.804076004739435946e-04,-2.117440052216290700e-03
3.601770514570508831e-03,-1.804076004489798125e-04,-2.117440108920884412e-03
3.601770481234519480e-03,-1.804076004240159762e-04,-2.117440165625477690e-03
3.601770447898529695e-03,-1.804076003990521670e-04,-2.117440222330070534e-03
3.601770414562539477e-03,-1.804076003740883306e-04,-2.117440279034662944e-03
3.601770381226547958e-03,-1.804076003491245214e-04,-2.117440335739254054e-03
3.601770347890554703e-03,-1.804076003241607393e-04,-2.117440392443845163e-03
3.601770314554561883e-03,-1.804076002991969029e-04,-2.117440449148435405e-03
3.601770281218567328e-03,-1.804076002742330937e-04,-2.117440505853025214e-03
3.601770247882572773e-03,-1.804076002492692845e-04,-2.117440562557615022e-03
3.601770214546576483e-03,-1.804076002243054481e-04,-2.117440619262203529e-03
3.601770181210579326e-03,-1.804076001993416118e-04,-2.117440675966792037e-03
3.601770147874581735e-03,-1.804076001743778297e-04,-2.117440732671379243e-03
3.601770114538583277e-03,-1.804076001494140204e-04,-2.117440789375966883e-03
3.601770081202583951e-03,-1.804076001244501841e-04,-2.117440846080553222e-03
3.601770047866582891e-03,-1.804076000994863749e-04,-2.117440902785139561e-03
3.601770014530581397e-03,-1.804076000745225385e-04,-2.117440959489725032e-03
3.601769981194579036e-03,-1.804076000495587293e-04,-2.117441016194310938e-03
3.601769947858576675e-03,-1.804076000245948659e-04,-2.117441072898895108e-03
3.601769914522571711e-03,-1.804075999996310837e-04,-2.117441129603479279e-03
3.601769881186567181e-03,-1.804075999746673016e-04,-2.117441186308062582e-03
3.601769847850561784e-03,-1.804075999497034653e-04,-2.117441243012645885e-03
3.601769814514554652e-03,-1.804075999247396018e-04,-2.117441299717228755e-03
3.601769781178547521e-03,-1.804075998997757655e-04,-2.117441356421810323e-03
3.601769747842538220e-03,-1.804075998748119834e-04,-2.117441413126391891e-03
3.601769714506529788e-03,-1.804075998498481470e-04,-2.117441469830973026e-03
3.601769681170519620e-03,-1.804075998248843378e-04,-2.117441526535552426e-03
3.601769647834508585e-03,-1.804075997999205286e-04,-2.117441583240133127e-03
3.601769614498495815e-03,-1.804075997749566922e-04,-2.117441639944712094e-03
3.601769581162483479e-03,-1.804075997499928559e-04,-2.117441696649291060e-03
3.601769547826469409e-03,-1.804075997250289924e-04,-2.117441753353868725e-03
3.601769514490454471e-03,-1.804075997000652103e-04,-2.117441810058446391e-03
3.601769481154439099e-03,-1.804075996751014282e-04,-2.117441866763023622e-03
3.601769447818422860e-03,-1.804075996501375919e-04,-2.117441923467600420e-03
3.601769414482405753e-03,-1.804075996251737555e-04,-2.117441980172176785e-03
3.601769381146386912e-03,-1.804075996002099192e-04,-2.117442036876751848e-03
3.601769347810368071e-03,-1.804075995752460828e-04,-2.117442093581326911e-03
3.601769314474347929e-03,-1.804075995502822465e-04,-2.117442150285901541e-03
3.601769281138326919e-03,-1.804075995253184373e-04,-2.117442206990475303e-03
3.601769247802305909e-03,-1.804075995003546009e-04,-2.117442263695048198e-03
3.601769214466282298e-03,-1.804075994753907917e-04,-2.117442320399621526e-03
3.601769181130259120e-03,-1.804075994504269283e-04,-2.117442377104193987e-03
3.601769147794235074e-03,-1.804075994254631190e-04,-2.117442433808765581e-03
3.601769114458209294e-03,-1.804075994004992827e-04,-2.117442490513336741e-03
3.601769081122183514e-03,-1.804075993755354464e-04,-2.117442547217907901e-03
3.601769047786155566e-03,-1.804075993505715829e-04,-2.117442603922478194e-03
3.601769014450127617e-03,-1.804075993256077737e-04,-2.117442660627047619e-03
3.601768981114098801e-03,-1.804075993006439645e-04,-2.117442717331617045e-03
3.601768947778069118e-03,-1.804075992756801281e-04,-2.117442774036185603e-03
3.601768914442039001e-03,-1.804075992507162918e-04,-2.117442830740753727e-03
3.601768881106007150e-03,-1.804075992257524554e-04,-2.117442887445320551e-03
3.601768847769974431e-03,-1.804075992007885920e-04,-2.117442944149887808e-03
3.601768814433941712e-03,-1.804075991758247557e-04,-2.117443000854454631e-03
3.601768781097907258e-03,-1.804075991508609735e-04,-2.117443057559020153e-03
3.601768747761871503e-03,-1.804075991258971372e-04,-2.117443114263586109e-03
3.601768714425835748e-03,-1.804075991009332467e-04,-2.117443170968150764e-03
3.601768681089798259e-03,-1.804075990759694374e-04,-2.117443227672714985e-03
3.601768647753761203e-03,-1.804075990510056011e-04,-2.117443284377278773e-03
3.601768614417722413e-03,-1.804075990260417919e-04,-2.117443341081842127e-03
3.601768581081683188e-03,-1.804075990010779284e-04,-2.117443397786405047e-03
3.601768547745643097e-03,-1.804075989761140921e-04,-2.117443454490967100e-03
3.601768514409601704e-03,-1.804075989511502828e-04,-2.117443511195529152e-03
3.601768481073559010e-03,-1.804075989261864194e-04,-2.117443567900089904e-03
3.601768447737516317e-03,-1.804075989012225831e-04,-2.117443624604650656e-03
3.601768414401471888e-03,-1.804075988762587196e-04,-2.117443681309210974e-03
3.601768381065427460e-03,-1.804075988512948833e-04,-2.117443738013770425e-03
3.601768347729381731e-03,-1.804075988263310741e-04,-2.117443794718329442e-03
3.601768314393335134e-03,-1.804075988013672106e-04,-2.117443851422888025e-03
3.601768281057287670e-03,-1.804075987764034014e-04,-2.117443908127446175e-03
3.601768247721238471e-03,-1.804075987514395379e-04,-2.117443964832003023e-03
3.601768214385189706e-03,-1.804075987264757016e-04,-2.117444021536560306e-03
3.601768181049139206e-03,-1.804075987015118111e-04,-2.117444078241116287e-03
3.601768147713088272e-03,-1.804075986765480018e-04,-2.117444134945671835e-03
3.601768114377036471e-03,-1.804075986515841655e-04,-2.117444191650227816e-03
3.601768081040983369e-03,-1.804075986266203292e-04,-2.117444248354782062e-03
3.601768047704929834e-03,-1.804075986016564657e-04,-2.117444305059336743e-03
3.601768014368874563e-03,-1.804075985766926023e-04,-2.117444361763890122e-03
3.601767981032819293e-03,-1.804075985517287930e-04,-2.117444418468443067e-03
3.601767947696762721e-03,-1.804075985267649296e-04,-2.117444475172995579e-03
3.601767914360705283e-03,-1.804075985018010933e-04,-2.117444531877548091e-03
3.601767881024646976e-03,-1.804075984768372298e-04,-2.117444588582100169e-03
3.601767847688588670e-03,-1.804075984518733935e-04,-2.117444645286650513e-03
3.601767814352528629e-03,-1.804075984269095300e-04,-2.117444701991201290e-03
3.601767781016467287e-03,-1.804075984019456666e-04,-2.117444758695750766e-03
3.601767747680405946e-03,-1.804075983769818574e-04,-2.117444815400301109e-03
3.601767714344342869e-03,-1.804075983520179939e-04,-2.117444872104849718e-03
3.601767681008279359e-03,-1.804075983270541576e-04,-2.117444928809397893e-03
3.601767647672214547e-03,-1.804075983020902941e-04,-2.117444985513946068e-03
3.601767614336150169e-03,-1.804075982771264578e-04,-2.117445042218492942e-03
3.601767581000083190e-03,-1.804075982521625944e-04,-2.117445098923039816e-03
3.601767547664016644e-03,-1.804075982271987038e-04,-2.117445155627586256e-03
3.601767514327947929e-03,-1.804075982022349217e-04,-2.117445212332131829e-03
3.601767480991879648e-03,-1.804075981772710854e-04,-2.117445269036676535e-03
3.601767447655809633e-03,-1.804075981523071948e-04,-2.117445325741221674e-03
3.601767414319739617e-03,-1.804075981273433314e-04,-2.117445382445765512e-03
3.601767380983668301e-03,-1.804075981023794950e-04,-2.117445439150309350e-03
3.601767347647595249e-03,-1.804075980774156316e-04,-2.117445495854852755e-03
3.601767314311522198e-03,-1.804075980524517682e-04,-2.117445552559394858e-03
3.601767280975447412e-03,-1.804075980274879589e-04,-2.117445609263936962e-03
3.601767247639373060e-03,-1.804075980025240955e-04,-2.117445665968478198e-03
3.601767214303296973e-03,-1.804075979775602320e-04,-2.117445722673019001e-03
3.601767180967220018e-03,-1.804075979525963957e-04,-2.117445779377559369e-03
3.601767147631142196e-03,-1.804075979276325052e-04,-2.117445836082099304e-03
3.601767114295063507e-03,-1.804075979026686417e-04,-2.117445892786638806e-03
3.601767080958984384e-03,-1.804075978777047783e-04,-2.117445949491177440e-03
3.601767047622903527e-03,-1.804075978527409419e-04,-2.117446006195716074e-03
3.601767014286822669e-03,-1.804075978277770785e-04,-2.117446062900253841e-03
3.601766980950740511e-03,-1.804075978028132150e-04,-2.117446119604790740e-03
3.601766947614657051e-03,-1.804075977778493516e-04,-2.117446176309326772e-03
3.601766914278573158e-03,-1.804075977528855153e-04,-2.117446233013863238e-03
3.601766880942488397e-03,-1.804075977279216247e-04,-2.117446289718398836e-03
3.601766847606403203e-03,-1.804075977029577884e-04,-2.117446346422934000e-03
3.601766814270316273e-03,-1.804075976779939521e-04,-2.117446403127468731e-03
3.601766780934228911e-03,-1.804075976530300615e-04,-2.117446459832002161e-03
3.601766747598140680e-03,-1.804075976280662252e-04,-2.117446516536536025e-03
3.601766714262051149e-03,-1.804075976031023617e-04,-2.117446573241069021e-03
3.601766680925960751e-03,-1.804075975781384712e-04,-2.117446629945601150e-03
3.601766647589869485e-03,-1.804075975531746077e-04,-2.117446686650133279e-03
3.601766614253778219e-03,-1.804075975282107443e-04,-2.117446743354664106e-03
3.601766580917685218e-03,-1.804075975032468809e-04,-2.117446800059194934e-03
3.601766547581590917e-03,-1.804075974782830445e-04,-2.117446856763725328e-03
3.601766514245497049e-03,-1.804075974533191540e-04,-2.117446913468255289e-03
3.601766480909401446e-03,-1.804075974283552905e-04,-2.117446970172784382e-03
3.601766447573304542e-03,-1.804075974033914542e-04,-2.117447026877313041e-03
3.601766414237207205e-03,-1.804075973784275636e-04,-2.117447083581841701e-03
3.601766380901109434e-03,-1.804075973534637273e-04,-2.117447140286369059e-03
3.601766347565010795e-03,-1.804075973284998097e-04,-2.117447196990895984e-03
3.601766314228910422e-03,-1.804075973035359462e-04,-2.117447253695422041e-03
3.601766280892809615e-03,-1.804075972785721370e-04,-2.117447310399948532e-03
3.601766247556707507e-03,-1.804075972536082464e-04,-2.117447367104473722e-03
3.601766214220604966e-03,-1.804075972286443288e-04,-2.117447423808998912e-03
3.601766180884501557e-03,-1.804075972036804924e-04,-2.117447480513523234e-03
3.601766147548396847e-03,-1.804075971787166290e-04,-2.117447537218047123e-03
3.601766114212292137e-03,-1.804075971537527656e-04,-2.117447593922570578e-03
3.601766080876186125e-03,-1.804075971287889021e-04,-2.117447650627093166e-03
3.601766047540079247e-03,-1.804075971038249845e-04,-2.117447707331615320e-03
3.601766014203971068e-03,-1.804075970788611481e-04,-2.117447764036137041e-03
3.601765980867862454e-03,-1.804075970538972847e-04,-2.117447820740658328e-03
3.601765947531752540e-03,-1.804075970289334213e-04,-2.117447877445179615e-03
3.601765914195641759e-03,-1.804075970039695036e-04,-2.117447934149699600e-03
3.601765880859529676e-03,-1.804075969790056673e-04,-2.117447990854218719e-03
3.601765847523418027e-03,-1.804075969540418038e-04,-2.117448047558737837e-03
3.601765814187304210e-03,-1.804075969290779133e-04,-2.117448104263256956e-03
3.601765780851190393e-03,-1.804075969041140227e-04,-2.117448160967774339e-03
3.601765747515075274e-03,-1.804075968791501593e-04,-2.117448217672292157e-03
3.601765714178959289e-03,-1.804075968541862958e-04,-2.117448274376808673e-03
3.601765680842842869e-03,-1.804075968292224324e-04,-2.117448331081325623e-03
3.601765647506724715e-03,-1.804075968042585419e-04,-2.117448387785841706e-03
3.601765614170606561e-03,-1.804075967792946784e-04,-2.117448444490356487e-03
3.601765580834487106e-03,-1.804075967543307879e-04,-2.117448501194871269e-03
3.601765547498366783e-03,-1.804075967293668973e-04,-2.117448557899386050e-03
3.601765514162245593e-03,-1.804075967044030610e-04,-2.117448614603899097e-03
3.601765480826123536e-03,-1.804075966794391433e-04,-2.117448671308413011e-03
3.601765447489999744e-03,-1.804075966544752799e-04,-2.117448728012925191e-03
3.601765414153876386e-03,-1.804075966295114164e-04,-2.117448784717437370e-03
3.601765380817751293e-03,-1.804075966045474988e-04,-2.117448841421948683e-03
3.601765347481625332e-03,-1.804075965795836354e-04,-2.117448898126459995e-03
3.601765314145498938e-03,-1.804075965546197719e-04,-2.117448954830970440e-03
3.601765280809372111e-03,-1.804075965296558814e-04,-2.117449011535480451e-03
3.601765247473243114e-03,-1.804075965046919908e-04,-2.117449068239990028e-03
3.601765214137113685e-03,-1.804075964797281003e-04,-2.117449124944499172e-03
3.601765180800983821e-03,-1.804075964547642368e-04,-2.117449181649007448e-03
3.601765147464853090e-03,-1.804075964298003734e-04,-2.117449238353515725e-03
3.601765114128720191e-03,-1.804075964048364557e-04,-2.117449295058023134e-03
3.601765080792588159e-03,-1.804075963798725923e-04,-2.117449351762529675e-03
3.601765047456454826e-03,-1.804075963549087018e-04,-2.117449408467036217e-03
3.601765014120319325e-03,-1.804075963299448112e-04,-2.117449465171541458e-03
3.601764980784184257e-03,-1.804075963049809478e-04,-2.117449521876047132e-03
3.601764947448048322e-03,-1.804075962800170572e-04,-2.117449578580551939e-03
3.601764914111911086e-03,-1.804075962550531938e-04,-2.117449635285056312e-03
3.601764880775772549e-03,-1.804075962300893032e-04,-2.117449691989559384e-03
3.601764847439633578e-03,-1.804075962051254127e-04,-2.117449748694062456e-03
3.601764814103493740e-03,-1.804075961801615221e-04,-2.117449805398565095e-03
3.601764780767353034e-03,-1.804075961551976316e-04,-2.117449862103066866e-03
3.601764747431211028e-03,-1.804075961302337410e-04,-2.117449918807568204e-03
3.601764714095068588e-03,-1.804075961052698776e-04,-2.117449975512069107e-03
3.601764680758924846e-03,-1.804075960803059599e-04,-2.117450032216569578e-03
3.601764647422780671e-03,-1.804075960553420694e-04,-2.117450088921070048e-03
3.601764614086635195e-03,-1.804075960303781789e-04,-2.117450145625569217e-03
3.601764580750490153e-03,-1.804075960054142612e-04,-2.117450202330067952e-03
3.601764547414342509e-03,-1.804075959804503978e-04,-2.117450259034566254e-03
3.601764514078194864e-03,-1.804075959554865343e-04,-2.117450315739064122e-03
3.601764480742045485e-03,-1.804075959305226438e-04,-2.117450372443561123e-03
3.601764447405896540e-03,-1.804075959055587261e-04,-2.117450429148057690e-03
3.601764414069745859e-03,-1.804075958805948627e-04,-2.117450485852554257e-03
3.601764380733594312e-03,-1.804075958556309450e-04,-2.117450542557049956e-03
3.601764347397441897e-03,-1.804075958306670274e-04,-2.117450599261545222e-03
3.601764314061288181e-03,-1.804075958057031639e-04,-2.117450655966039621e-03
3.601764280725135332e-03,-1.804075957807392734e-04,-2.117450712670534019e-03
3.601764247388979014e-03,-1.804075957557753828e-04,-2.117450769375027117e-03
3.601764214052823564e-03,-1.804075957308114923e-04,-2.117450826079519781e-03
3.601764180716666812e-03,-1.804075957058475746e-04,-2.117450882784012011e-03
3.601764147380509193e-03,-1.804075956808836841e-04,-2.117450939488504241e-03
3.601764114044350706e-03,-1.804075956559197935e-04,-2.117450996192995604e-03
3.601764080708191353e-03,-1.804075956309559301e-04,-2.117451052897486533e-03
3.601764047372030698e-03,-1.804075956059920125e-04,-2.117451109601976595e-03
3.601764014035869609e-03,-1.804075955810280948e-04,-2.117451166306466223e-03
3.601763980699707220e-03,-1.804075955560642314e-04,-2.117451223010955851e-03
3.601763947363544396e-03,-1.804075955311002866e-04,-2.117451279715444612e-03
3.601763914027380272e-03,-1.804075955061364232e-04,-2.117451336419932939e-03
3.601763880691215714e-03,-1.804075954811725055e-04,-2.117451393124420399e-03
3.601763847355050289e-03,-1.804075954562085879e-04,-2.117451449828907425e-03
3.601763814018883996e-03,-1.804075954312447244e-04,-2.117451506533394017e-03
3.601763780682716402e-03,-1.804075954062808068e-04,-2.117451563237879742e-03
3.601763747346547508e-03,-1.804075953813168891e-04,-2.117451619942365467e-03
3.601763714010379046e-03,-1.804075953563529986e-04,-2.117451676646850758e-03
3.601763680674207983e-03,-1.804075953313891080e-04,-2.117451733351335182e-03
3.601763647338038221e-03,-1.804075953064252175e-04,-2.117451790055819173e-03
3.601763614001865423e-03,-1.804075952814613269e-04,-2.117451846760302295e-03
3.601763580665693059e-03,-1.804075952564974364e-04,-2.117451903464784985e-03
3.601763547329518960e-03,-1.804075952315334916e-04,-2.117451960169267674e-03
3.601763513993345295e-03,-1.804075952065696011e-04,-2.117452016873749062e-03
3.601763480657169461e-03,-1.804075951816057105e-04,-2.117452073578230450e-03
3.601763447320993194e-03,-1.804075951566418200e-04,-2.117452130282711838e-03
3.601763413984816059e-03,-1.804075951316778752e-04,-2.117452186987191058e-03
3.601763380648637623e-03,-1.804075951067139847e-04,-2.117452243691671579e-03
3.601763347312458754e-03,-1.804075950817500670e-04,-2.117452300396150365e-03
3.601763313976278583e-03,-1.804075950567862036e-04,-2.117452357100629151e-03
3.601763280640098413e-03,-1.804075950318222859e-04,-2.117452413805106636e-03
3.601763247303916508e-03,-1.804075950068583683e-04,-2.117452470509584555e-03
3.601763213967734169e-03,-1.804075949818944777e-04,-2.117452527214061606e-03
3.601763180631550963e-03,-1.804075949569305330e-04,-2.117452583918537790e-03
3.601763147295366022e-03,-1.804075949319666695e-04,-2.117452640623013974e-03
3.601763113959181081e-03,-1.804075949070027248e-04,-2.117452697327489291e-03
3.601763080622995272e-03,-1.804075948820388071e-04,-2.117452754031963740e-03
3.601763047286808163e-03,-1.804075948570748895e-04,-2.117452810736438623e-03
3.601763013950620186e-03,-1.804075948321110260e-04,-2.117452867440911771e-03
3.601762980614431342e-03,-1.804075948071470813e-04,-2.117452924145385353e-03
3.601762947278241197e-03,-1.804075947821831636e-04,-2.117452980849858068e-03
3.601762913942051485e-03,-1.804075947572192731e-04,-2.117453037554330782e-03
3.601762880605859606e-03,-1.804075947322553554e-04,-2.117453094258802196e-03
3.601762847269667292e-03,-1.804075947072914649e-04,-2.117453150963273176e-03
3.601762813933474545e-03,-1.804075946823275201e-04,-2.117453207667744156e-03
3.601762780597280496e-03,-1.804075946573636296e-04,-2.117453264372213834e-03
3.601762747261085147e-03,-1.804075946323996848e-04,-2.117453321076683513e-03
3.601762713924889798e-03,-1.804075946074358214e-04,-2.117453377781152325e-03
3.601762680588692280e-03,-1.804075945824719037e-04,-2.117453434485620702e-03
3.601762647252495196e-03,-1.804075945575079861e-04,-2.117453491190089080e-03
3.601762613916295944e-03,-1.804075945325440684e-04,-2.117453547894556157e-03
3.601762580580096691e-03,-1.804075945075801508e-04,-2.117453604599023233e-03
3.601762547243897005e-03,-1.804075944826162331e-04,-2.117453661303489443e-03
3.601762513907695584e-03,-1.804075944576523155e-04,-2.117453718007955218e-03
3.601762480571493730e-03,-1.804075944326883978e-04,-2.117453774712420560e-03
3.601762447235291008e-03,-1.804075944077244802e-04,-2.117453831416885469e-03
3.601762413899086551e-03,-1.804075943827605625e-04,-2.117453888121349510e-03
3.601762380562881661e-03,-1.804075943577966178e-04,-2.117453944825813117e-03
3.601762347226676771e-03,-1.804075943328327001e-04,-2.117454001530276290e-03
3.601762313890470146e-03,-1.804075943078687824e-04,-2.117454058234738597e-03
3.601762280554262653e-03,-1.804075942829048648e-04,-2.117454114939201337e-03
3.601762247218054293e-03,-1.804075942579409471e-04,-2.117454171643662775e-03
3.601762213881844633e-03,-1.804075942329770295e-04,-2.117454228348123781e-03
3.601762180545634972e-03,-1.804075942080131118e-04,-2.117454285052583918e-03
3.601762147209423576e-03,-1.804075941830491942e-04,-2.117454341757043623e-03
3.601762113873211747e-03,-1.804075941580852765e-04,-2.117454398461503327e-03
3.601762080536999484e-03,-1.804075941331213860e-04,-2.117454455165962163e-03
3.601762047200785053e-03,-1.804075941081574412e-04,-2.117454511870420567e-03
3.601762013864571055e-03,-1.804075940831935236e-04,-2.117454568574878536e-03
3.601761980528355757e-03,-1.804075940582296059e-04,-2.117454625279335204e-03
3.601761947192139591e-03,-1.804075940332656612e-04,-2.117454681983792306e-03
3.601761913855922124e-03,-1.804075940083017706e-04,-2.117454738688248541e-03
3.601761880519704657e-03,-1.804075939833378530e-04,-2.117454795392704342e-03
3.601761847183485889e-03,-1.804075939583738811e-04,-2.117454852097159709e-03
3.601761813847265386e-03,-1.804075939334099635e-04,-2.117454908801613776e-03
3.601761780511044449e-03,-1.804075939084460458e-04,-2.117454965506068276e-03
3.601761747174823079e-03,-1.804075938834821011e-04,-2.117455022210521474e-03
3.601761713838600408e-03,-1.804075938585181834e-04,-2.117455078914975107e-03
3.601761680502377303e-03,-1.804075938335542658e-04,-2.117455135619426571e-03
3.601761647166152897e-03,-1.804075938085903481e-04,-2.117455192323879336e-03
3.601761613829927624e-03,-1.804075937836263762e-04,-2.117455249028331234e-03
3.601761580493701483e-03,-1.804075937586624586e-04,-2.117455305732781397e-03
3.601761547157474909e-03,-1.804075937336985680e-04,-2.117455362437231994e-03
3.601761513821247034e-03,-1.804075937087345962e-04,-2.117455419141682157e-03
3.601761480485018291e-03,-1.804075936837707056e-04,-2.117455475846131020e-03
3.601761447148789114e-03,-1.804075936588067609e-04,-2.117455532550579882e-03
3.601761413812558203e-03,-1.804075936338428432e-04,-2.117455589255028310e-03
3.601761380476326858e-03,-1.804075936088788985e-04,-2.117455645959475871e-03
3.601761347140094646e-03,-1.804075935839149537e-04,-2.117455702663922999e-03
3.601761313803861567e-03,-1.804075935589510361e-04,-2.117455759368369259e-03
3.601761280467627186e-03,-1.804075935339870913e-04,-2.117455816072815519e-03
3.601761247131392372e-03,-1.804075935090231736e-04,-2.117455872777261345e-03
3.601761213795157124e-03,-1.804075934840592018e-04,-2.117455929481706304e-03
3.601761180458919274e-03,-1.804075934590953112e-04,-2.117455986186150396e-03
3.601761147122682725e-03,-1.804075934341313394e-04,-2.117456042890594487e-03
3.601761113786444007e-03,-1.804075934091674759e-04,-2.117456099595038145e-03
3.601761080450203989e-03,-1.804075933842035041e-04,-2.117456156299480936e-03
3.601761047113963971e-03,-1.804075933592395864e-04,-2.117456213003923293e-03
3.601761013777723085e-03,-1.804075933342756417e-04,-2.117456269708365216e-03
3.601760980441480898e-03,-1.804075933093116698e-04,-2.117456326412806272e-03
3.601760947105238711e-03,-1.804075932843477793e-04,-2.117456383117246894e-03
3.601760913768993922e-03,-1.804075932593838074e-04,-2.117456439821687516e-03
3.601760880432749133e-03,-1.804075932344198897e-04,-2.117456496526126837e-03
3.601760847096503911e-03,-1.804075932094559450e-04,-2.117456553230566592e-03
3.601760813760257821e-03,-1.804075931844919731e-04,-2.117456609935005046e-03
3.601760780424009996e-03,-1.804075931595280555e-04,-2.117456666639443066e-03
3.601760747087762171e-03,-1.804075931345641378e-04,-2.117456723343880652e-03
3.601760713751512612e-03,-1.804075931096001931e-04,-2.117456780048318239e-03
3.601760680415262619e-03,-1.804075930846362483e-04,-2.117456836752754524e-03
3.601760647079011758e-03,-1.804075930596723307e-04,-2.117456893457190376e-03
3.601760613742760030e-03,-1.804075930347083588e-04,-2.117456950161625794e-03
3.601760580406507001e-03,-1.804075930097444140e-04,-2.117457006866060778e-03
3.601760547070253539e-03,-1.804075929847804693e-04,-2.117457063570494461e-03
3.601760513733998775e-03,-1.804075929598165516e-04,-2.117457120274929012e-03
3.601760480397744012e-03,-1.804075929348526069e-04,-2.117457176979361828e-03
3.601760447061487947e-03,-1.804075929098886621e-04,-2.117457233683794644e-03
3.601760413725230148e-03,-1.804075928849247174e-04,-2.117457290388227026e-03
3.601760380388972348e-03,-1.804075928599607726e-04,-2.117457347092658974e-03
3.601760347052713682e-03,-1.804075928349968278e-04,-2.117457403797090056e-03
3.601760313716454148e-03,-1.804075928100328831e-04,-2.117457460501520269e-03
3.601760280380193312e-03,-1.804075927850689654e-04,-2.117457517205950483e-03
3.601760247043931610e-03,-1.804075927601049936e-04,-2.117457573910380263e-03
3.601760213707669040e-03,-1.804075927351410488e-04,-2.117457630614809610e-03
3.601760180371405603e-03,-1.804075927101771041e-04,-2.117457687319237655e-03
3.601760147035141298e-03,-1.804075926852131593e-04,-2.117457744023666134e-03
3.601760113698875693e-03,-1.804075926602491874e-04,-2.117457800728093312e-03
3.601760080362610087e-03,-1.804075926352852427e-04,-2.117457857432520057e-03
3.601760047026344048e-03,-1.804075926103213250e-04,-2.117457914136946801e-03
3.601760013690075840e-03,-1.804075925853573532e-04,-2.117457970841372245e-03
3.601759980353807199e-03,-1.804075925603934355e-04,-2.117458027545797254e-03
3.601759947017537690e-03,-1.804075925354294908e-04,-2.117458084250223131e-03
3.601759913681267314e-03,-1.804075925104654918e-04,-2.117458140954646840e-03
3.601759880344995637e-03,-1.804075924855015741e-04,-2.117458197659070548e-03
3.601759847008723092e-03,-1.804075924605376294e-04,-2.117458254363493390e-03
3.601759813672450114e-03,-1.804075924355736304e-04,-2.117458311067916665e-03
3.601759780336176268e-03,-1.804075924106097128e-04,-2.117458367772338639e-03
3.601759746999901122e-03,-1.804075923856457409e-04,-2.117458424476760612e-03
3.601759713663625542e-03,-1.804075923606818233e-04,-2.117458481181181285e-03
3.601759680327349094e-03,-1.804075923357178514e-04,-2.117458537885601524e-03
3.601759646991070912e-03,-1.804075923107538795e-04,-2.117458594590021764e-03
3.601759613654792729e-03,-1.804075922857899619e-04,-2.117458651294441135e-03
3.601759580318514113e-03,-1.804075922608259900e-04,-2.117458707998860074e-03
3.601759546982232895e-03,-1.804075922358620182e-04,-2.117458764703278578e-03
3.601759513645951677e-03,-1.804075922108980734e-04,-2.117458821407696215e-03
3.601759480309670459e-03,-1.804075921859341286e-04,-2.117458878112113418e-03
3.601759446973387072e-03,-1.804075921609701297e-04,-2.117458934816530622e-03
3.601759413637103686e-03,-1.804075921360062120e-04,-2.117458991520946524e-03
3.601759380300819432e-03,-1.804075921110422402e-04,-2.117459048225361993e-03
3.601759346964533443e-03,-1.804075920860782954e-04,-2.117459104929777895e-03
3.601759313628247021e-03,-1.804075920611143506e-04,-2.117459161634192497e-03
3.601759280291959298e-03,-1.804075920361503517e-04,-2.117459218338606664e-03
3.601759246955671141e-03,-1.804075920111864069e-04,-2.117459275043020398e-03
3.601759213619381682e-03,-1.804075919862224622e-04,-2.117459331747432831e-03
3.601759180283091791e-03,-1.804075919612585445e-04,-2.117459388451845698e-03
3.601759146946801465e-03,-1.804075919362945184e-04,-2.117459445156257263e-03
3.601759113610509405e-03,-1.804075919113305737e-04,-2.117459501860668829e-03
3.601759080274216478e-03,-1.804075918863666289e-04,-2.117459558565079961e-03
3.601759046937923116e-03,-1.804075918614026842e-04,-2.117459615269490659e-03
3.601759013601628888e-03,-1.804075918364387123e-04,-2.117459671973900056e-03
3.601758980265333358e-03,-1.804075918114747404e-04,-2.117459728678309887e-03
3.601758946929036961e-03,-1.804075917865107957e-04,-2.117459785382718417e-03
3.601758913592740131e-03,-1.804075917615467967e-04,-2.117459842087126946e-03
3.601758880256442866e-03,-1.804075917365828520e-04,-2.117459898791534609e-03
3.601758846920143000e-03,-1.804075917116188801e-04,-2.117459955495941838e-03
3.601758813583843134e-03,-1.804075916866549353e-04,-2.117460012200348199e-03
3.601758780247542400e-03,-1.804075916616909635e-04,-2.117460068904754560e-03
3.601758746911241232e-03,-1.804075916367269916e-04,-2.117460125609160488e-03
3.601758713574938330e-03,-1.804075916117630198e-04,-2.117460182313565548e-03
3.601758680238635428e-03,-1.804075915867990479e-04,-2.117460239017969741e-03
3.601758646902330791e-03,-1.804075915618351031e-04,-2.117460295722374368e-03
3.601758613566025721e-03,-1.804075915368711313e-04,-2.117460352426777694e-03
3.601758580229720650e-03,-1.804075915119071594e-04,-2.117460409131180585e-03
3.601758546893413845e-03,-1.804075914869431876e-04,-2.117460465835582610e-03
3.601758513557105305e-03,-1.804075914619791886e-04,-2.117460522539984635e-03
3.601758480220797198e-03,-1.804075914370152438e-04,-2.117460579244385792e-03
3.601758446884486924e-03,-1.804075914120512991e-04,-2.117460635948786515e-03
3.601758413548177083e-03,-1.804075913870873272e-04,-2.117460692653186805e-03
3.601758380211865940e-03,-1.804075913621233282e-04,-2.117460749357587095e-03
3.601758346875553497e-03,-1.804075913371593564e-04,-2.117460806061985650e-03
3.601758313539240620e-03,-1.804075913121954116e-04,-2.117460862766385073e-03
3.601758280202926009e-03,-1.804075912872314398e-04,-2.117460919470782760e-03
3.601758246866611397e-03,-1.804075912622674679e-04,-2.117460976175180448e-03
3.601758213530295485e-03,-1.804075912373034689e-04,-2.117461032879578136e-03
3.601758180193979138e-03,-1.804075912123395242e-04,-2.117461089583974089e-03
3.601758146857661491e-03,-1.804075911873755252e-04,-2.117461146288370042e-03
3.601758113521343410e-03,-1.804075911624115534e-04,-2.117461202992765561e-03
3.601758080185024028e-03,-1.804075911374476086e-04,-2.117461259697160647e-03
3.601758046848704212e-03,-1.804075911124836367e-04,-2.117461316401554865e-03
3.601758013512383096e-03,-1.804075910875196107e-04,-2.117461373105949084e-03
3.601757980176061111e-03,-1.804075910625556659e-04,-2.117461429810342435e-03
3.601757946839737826e-03,-1.804075910375916940e-04,-2.117461486514735352e-03
3.601757913503414107e-03,-1.804075910126277493e-04,-2.117461543219127402e-03
3.601757880167089521e-03,-1.804075909876637774e-04,-2.117461599923519452e-03
3.601757846830764068e-03,-1.804075909626997785e-04,-2.117461656627910201e-03
3.601757813494437747e-03,-1.804075909377357795e-04,-2.117461713332301383e-03
3.601757780158110558e-03,-1.804075909127718076e-04,-2.117461770036691698e-03
3.601757746821782069e-03,-1.804075908878078629e-04,-2.117461826741080713e-03
3.601757713485452712e-03,-1.804075908628438910e-04,-2.117461883445469727e-03
3.601757680149122922e-03,-1.804075908378798920e-04,-2.117461940149858741e-03
3.601757646812791831e-03,-1.804075908129159202e-04,-2.117461996854247321e-03
3.601757613476460305e-03,-1.804075907879519212e-04,-2.117462053558634167e-03
3.601757580140127913e-03,-1.804075907629879222e-04,-2.117462110263021013e-03
3.601757546803793786e-03,-1.804075907380239233e-04,-2.117462166967407858e-03
3.601757513467460092e-03,-1.804075907130599785e-04,-2.117462223671792969e-03
3.601757480131124664e-03,-1.804075906880959796e-04,-2.117462280376178948e-03
3.601757446794788368e-03,-1.804075906631320077e-04,-2.117462337080563625e-03
3.601757413458451206e-03,-1.804075906381680087e-04,-2.117462393784948303e-03
3.601757380122113175e-03,-1.804075906132040640e-04,-2.117462450489331679e-03
3.601757346785773844e-03,-1.804075905882400650e-04,-2.117462507193715055e-03
3.601757313449434512e-03,-1.804075905632760660e-04,-2.117462563898097998e-03
3.601757280113094314e-03,-1.804075905383120942e-04,-2.117462620602480073e-03
3.601757246776752814e-03,-1.804075905133480952e-04,-2.117462677306861715e-03
3.601757213440410013e-03,-1.804075904883841233e-04,-2.117462734011242489e-03
3.601757180104066779e-03,-1.804075904634201515e-04,-2.117462790715623697e-03
3.601757146767722677e-03,-1.804075904384561525e-04,-2.117462847420003170e-03
3.601757113431378141e-03,-1.804075904134921535e-04,-2.117462904124382643e-03
3.601757080095031437e-03,-1.804075903885282088e-04,-2.117462960828761682e-03
3.601757046758685167e-03,-1.804075903635641827e-04,-2.117463017533139855e-03
3.601757013422337162e-03,-1.804075903386002109e-04,-2.117463074237518027e-03
3.601756980085988723e-03,-1.804075903136362119e-04,-2.117463130941895765e-03
3.601756946749638984e-03,-1.804075902886722129e-04,-2.117463187646272636e-03
3.601756913413288810e-03,-1.804075902637082411e-04,-2.117463244350648640e-03
3.601756880076937770e-03,-1.804075902387442421e-04,-2.117463301055024210e-03
3.601756846740584994e-03,-1.804075902137802702e-04,-2.117463357759399780e-03
3.601756813404232652e-03,-1.804075901888162713e-04,-2.117463414463774483e-03
3.601756780067878576e-03,-1.804075901638522452e-04,-2.117463471168148318e-03
3.601756746731523632e-03,-1.804075901388882733e-04,-2.117463527872522153e-03
3.601756713395167821e-03,-1.804075901139243015e-04,-2.117463584576895989e-03
3.601756680058811142e-03,-1.804075900889603296e-04,-2.117463641281267656e-03
3.601756646722454030e-03,-1.804075900639963306e-04,-2.117463697985639756e-03
3.601756613386095183e-03,-1.804075900390323046e-04,-2.117463754690011857e-03
3.601756580049735468e-03,-1.804075900140683327e-04,-2.117463811394382656e-03
3.601756546713376188e-03,-1.804075899891043337e-04,-2.117463868098753022e-03
3.601756513377014739e-03,-1.804075899641403348e-04,-2.117463924803122521e-03
3.601756480040652856e-03,-1.804075899391763629e-04,-2.117463981507492887e-03
3.601756446704290106e-03,-1.804075899142123639e-04,-2.117464038211861084e-03
3.601756413367926922e-03,-1.804075898892483650e-04,-2.117464094916229715e-03
3.601756380031562003e-03,-1.804075898642843389e-04,-2.117464151620597045e-03
3.601756346695196218e-03,-1.804075898393203399e-04,-2.117464208324964375e-03
3.601756313358829998e-03,-1.804075898143563681e-04,-2.117464265029330838e-03
3.601756280022462911e-03,-1.804075897893923691e-04,-2.117464321733697301e-03
3.601756246686094523e-03,-1.804075897644283701e-04,-2.117464378438062896e-03
3.601756213349725701e-03,-1.804075897394643441e-04,-2.117464435142428492e-03
3.601756180013356012e-03,-1.804075897145003722e-04,-2.117464491846792786e-03
3.601756146676985022e-03,-1.804075896895363732e-04,-2.117464548551156647e-03
3.601756113340612731e-03,-1.804075896645723472e-04,-2.117464605255520074e-03
3.601756080004240006e-03,-1.804075896396083753e-04,-2.117464661959883067e-03
3.601756046667867282e-03,-1.804075896146444034e-04,-2.117464718664246494e-03
3.601756013331492822e-03,-1.804075895896803774e-04,-2.117464775368607752e-03
3.601755979995117062e-03,-1.804075895647163513e-04,-2.117464832072969011e-03
3.601755946658741301e-03,-1.804075895397523523e-04,-2.117464888777329836e-03
3.601755913322364673e-03,-1.804075895147884076e-04,-2.117464945481690661e-03
3.601755879985986310e-03,-1.804075894898243815e-04,-2.117465002186050185e-03
3.601755846649607514e-03,-1.804075894648603554e-04,-2.117465058890409275e-03
3.601755813313227417e-03,-1.804075894398963565e-04,-2.117465115594768365e-03
3.601755779976846886e-03,-1.804075894149323846e-04,-2.117465172299126588e-03
3.601755746640465487e-03,-1.804075893899683585e-04,-2.117465229003484377e-03
3.601755713304083655e-03,-1.804075893650043325e-04,-2.117465285707840865e-03
3.601755679967700522e-03,-1.804075893400403606e-04,-2.117465342412197787e-03
3.601755646631316088e-03,-1.804075893150763345e-04,-2.117465399116554275e-03
3.601755613294931220e-03,-1.804075892901123356e-04,-2.117465455820909462e-03
3.601755579958545051e-03,-1.804075892651483095e-04,-2.117465512525264215e-03
3.601755546622158449e-03,-1.804075892401843105e-04,-2.117465569229618535e-03
3.601755513285770545e-03,-1.804075892152203116e-04,-2.117465625933972855e-03
3.601755479949381774e-03,-1.804075891902563126e-04,-2.117465682638325873e-03
3.601755446612992569e-03,-1.804075891652922865e-04,-2.117465739342678892e-03
3.601755413276602064e-03,-1.804075891403282875e-04,-2.117465796047031477e-03
3.601755379940211124e-03,-1.804075891153642615e-04,-2.117465852751383194e-03
3.601755346603818450e-03,-1.804075890904002896e-04,-2.117465909455734912e-03
3.601755313267425342e-03,-1.804075890654362635e-04,-2.117465966160085762e-03
3.601755279931032235e-03,-1.804075890404722646e-04,-2.117466022864435311e-03
3.601755246594636958e-03,-1.804075890155082385e-04,-2.117466079568785294e-03
3.601755213258240815e-03,-1.804075889905442666e-04,-2.117466136273134410e-03
3.601755179921844671e-03,-1.804075889655802135e-04,-2.117466192977483092e-03
3.601755146585447227e-03,-1.804075889406161874e-04,-2.117466249681830906e-03
3.601755113249048915e-03,-1.804075889156521613e-04,-2.117466306386178720e-03
3.601755079912649735e-03,-1.804075888906881895e-04,-2.117466363090525668e-03
3.601755046576249689e-03,-1.804075888657241905e-04,-2.117466419794871747e-03
3.601755013239848775e-03,-1.804075888407601644e-04,-2.117466476499217827e-03
3.601754979903446559e-03,-1.804075888157961383e-04,-2.117466533203563473e-03
3.601754946567044344e-03,-1.804075887908321123e-04,-2.117466589907908252e-03
3.601754913230640395e-03,-1.804075887658681133e-04,-2.117466646612253030e-03
3.601754879894236011e-03,-1.804075887409041143e-04,-2.117466703316596508e-03
3.601754846557830327e-03,-1.804075887159401154e-04,-2.117466760020939986e-03
3.601754813221423341e-03,-1.804075886909760622e-04,-2.117466816725283030e-03
3.601754779885016789e-03,-1.804075886660120361e-04,-2.117466873429624339e-03
3.601754746548608936e-03,-1.804075886410480372e-04,-2.117466930133966516e-03
3.601754713212199782e-03,-1.804075886160840382e-04,-2.117466986838307391e-03
3.601754679875789327e-03,-1.804075885911200121e-04,-2.117467043542648700e-03
3.601754646539379306e-03,-1.804075885661559860e-04,-2.117467100246988709e-03
3.601754613202967983e-03,-1.804075885411919329e-04,-2.117467156951327416e-03
3.601754579866554493e-03,-1.804075885162279068e-04,-2.117467213655666990e-03
3.601754546530141435e-03,-1.804075884912639620e-04,-2.117467270360005264e-03
3.601754513193726644e-03,-1.804075884662998818e-04,-2.117467327064343537e-03
3.601754479857312286e-03,-1.804075884413358828e-04,-2.117467383768680943e-03
3.601754446520895759e-03,-1.804075884163718296e-04,-2.117467440473017482e-03
3.601754413184478799e-03,-1.804075883914078035e-04,-2.117467497177354455e-03
3.601754379848060104e-03,-1.804075883664437775e-04,-2.117467553881690126e-03
3.601754346511642276e-03,-1.804075883414798056e-04,-2.117467610586025364e-03
3.601754313175222280e-03,-1.804075883165157795e-04,-2.117467667290360168e-03
3.601754279838801417e-03,-1.804075882915517264e-04,-2.117467723994694538e-03
3.601754246502380120e-03,-1.804075882665877274e-04,-2.117467780699028041e-03
3.601754213165957955e-03,-1.804075882416237013e-04,-2.117467837403361544e-03
3.601754179829534490e-03,-1.804075882166596752e-04,-2.117467894107693746e-03
3.601754146493110591e-03,-1.804075881916956492e-04,-2.117467950812025948e-03
3.601754113156685824e-03,-1.804075881667316231e-04,-2.117468007516357283e-03
3.601754079820259323e-03,-1.804075881417675970e-04,-2.117468064220689051e-03
3.601754046483832822e-03,-1.804075881168035710e-04,-2.117468120925019518e-03
3.601754013147405020e-03,-1.804075880918395720e-04,-2.117468177629349118e-03
3.601753979810976350e-03,-1.804075880668755459e-04,-2.117468234333678284e-03
3.601753946474547680e-03,-1.804075880419114927e-04,-2.117468291038007450e-03
3.601753913138117276e-03,-1.804075880169474667e-04,-2.117468347742335749e-03
3.601753879801685571e-03,-1.804075879919834406e-04,-2.117468404446664048e-03
3.601753846465253865e-03,-1.804075879670193874e-04,-2.117468461150991046e-03
3.601753813128820425e-03,-1.804075879420553885e-04,-2.117468517855317610e-03
3.601753779792386551e-03,-1.804075879170913624e-04,-2.117468574559644174e-03
3.601753746455952244e-03,-1.804075878921273092e-04,-2.117468631263969871e-03
3.601753713119516635e-03,-1.804075878671632831e-04,-2.117468687968294266e-03
3.601753679783080159e-03,-1.804075878421992571e-04,-2.117468744672619096e-03
3.601753646446642816e-03,-1.804075878172352039e-04,-2.117468801376943058e-03
3.601753613110204172e-03,-1.804075877922711778e-04,-2.117468858081267020e-03
3.601753579773765094e-03,-1.804075877673071246e-04,-2.117468914785590114e-03
3.601753546437325149e-03,-1.804075877423431257e-04,-2.117468971489912775e-03
3.601753513100883902e-03,-1.804075877173791267e-04,-2.117469028194234569e-03
3.601753479764441788e-03,-1.804075876924150735e-04,-2.117469084898555929e-03
3.601753446427999241e-03,-1.804075876674510475e-04,-2.117469141602876855e-03
3.601753413091555826e-03,-1.804075876424869943e-04,-2.117469198307197348e-03
3.601753379755111544e-03,-1.804075876175229411e-04,-2.117469255011517407e-03
3.601753346418665961e-03,-1.804075875925589421e-04,-2.117469311715837032e-03
3.601753313082219077e-03,-1.804075875675948890e-04,-2.117469368420155356e-03
3.601753279745772626e-03,-1.804075875426308358e-04,-2.117469425124473680e-03
3.601753246409324441e-03,-1.804075875176667826e-04,-2.117469481828791571e-03
3.601753213072874955e-03,-1.804075874927027294e-04,-2.117469538533108160e-03
3.601753179736425468e-03,-1.804075874677387034e-04,-2.117469595237425183e-03
3.601753146399974681e-03,-1.804075874427746773e-04,-2.117469651941741773e-03
3.601753113063523026e-03,-1.804075874178106783e-04,-2.117469708646057061e-03
3.601753079727070071e-03,-1.804075873928466251e-04,-2.117469765350372349e-03
3.601753046390617115e-03,-1.804075873678825720e-04,-2.117469822054686771e-03
3.601753013054162424e-03,-1.804075873429185459e-04,-2.117469878759000324e-03
3.601752979717707300e-03,-1.804075873179544927e-04,-2.117469935463313878e-03
3.601752946381251309e-03,-1.804075872929904395e-04,-2.117469992167626998e-03
3.601752913044794450e-03,-1.804075872680264135e-04,-2.117470048871938817e-03
3.601752879708337157e-03,-1.804075872430623603e-04,-2.117470105576250636e-03
3.601752846371878130e-03,-1.804075872180983613e-04,-2.117470162280562455e-03
3.601752813035418235e-03,-1.804075871931343081e-04,-2.117470218984873406e-03
3.601752779698957907e-03,-1.804075871681702821e-04,-2.117470275689183057e-03
3.601752746362495844e-03,-1.804075871432062018e-04,-2.117470332393493141e-03
3.601752713026033781e-03,-1.804075871182421486e-04,-2.117470389097802358e-03
3.601752679689570850e-03,-1.804075870932781225e-04,-2.117470445802111141e-03
3.601752646353106619e-03,-1.804075870683140694e-04,-2.117470502506419491e-03
3.601752613016641954e-03,-1.804075870433500162e-04,-2.117470559210726539e-03
3.601752579680175988e-03,-1.804075870183859901e-04,-2.117470615915034021e-03
3.601752546343709154e-03,-1.804075869934219369e-04,-2.117470672619340636e-03
3.601752513007241887e-03,-1.804075869684579380e-04,-2.117470729323646383e-03
3.601752479670772885e-03,-1.804075869434938848e-04,-2.117470786027951697e-03
3.601752446334303883e-03,-1.804075869185298045e-04,-2.117470842732257011e-03
3.601752412997834014e-03,-1.804075868935657513e-04,-2.117470899436561457e-03
3.601752379661362410e-03,-1.804075868686016982e-04,-2.117470956140865470e-03
3.601752346324890372e-03,-1.804075868436376450e-04,-2.117471012845168182e-03
3.601752312988417467e-03,-1.804075868186736189e-04,-2.117471069549471327e-03
3.601752279651943695e-03,-1.804075867937095928e-04,-2.117471126253773605e-03
3.601752246315469055e-03,-1.804075867687455125e-04,-2.117471182958075016e-03
3.601752212978993114e-03,-1.804075867437814594e-04,-2.117471239662376426e-03
3.601752179642516739e-03,-1.804075867188174333e-04,-2.117471296366676969e-03
3.601752146306039497e-03,-1.804075866938533530e-04,-2.117471353070977079e-03
3.601752112969560955e-03,-1.804075866688892998e-04,-2.117471409775276755e-03
3.601752079633081978e-03,-1.804075866439252738e-04,-2.117471466479575997e-03
3.601752046296601700e-03,-1.804075866189612206e-04,-2.117471523183874372e-03
3.601752012960120989e-03,-1.804075865939971403e-04,-2.117471579888172313e-03
3.601751979623638977e-03,-1.804075865690331142e-04,-2.117471636592470254e-03
3.601751946287156531e-03,-1.804075865440690611e-04,-2.117471693296767328e-03
3.601751912950672783e-03,-1.804075865191050079e-04,-2.117471750001063101e-03
3.601751879614188169e-03,-1.804075864941409276e-04,-2.117471806705358874e-03
3.601751846277702687e-03,-1.804075864691769286e-04,-2.117471863409654646e-03
3.601751812941216772e-03,-1.804075864442128484e-04,-2.117471920113949118e-03
3.601751779604728688e-03,-1.804075864192487952e-04,-2.117471976818244023e-03
3.601751746268241038e-03,-1.804075863942847149e-04,-2.117472033522537628e-03
3.601751712931752520e-03,-1.804075863693206346e-04,-2.117472090226830798e-03
3.601751679595262701e-03,-1.804075863443566085e-04,-2.117472146931123535e-03
3.601751646258772015e-03,-1.804075863193925554e-04,-2.117472203635414971e-03
3.601751612922280028e-03,-1.804075862944284751e-04,-2.117472260339707275e-03
3.601751579585788041e-03,-1.804075862694644490e-04,-2.117472317043998277e-03
3.601751546249294753e-03,-1.804075862445003687e-04,-2.117472373748288846e-03
3.601751512912800164e-03,-1.804075862195363155e-04,-2.117472430452578980e-03
3.601751479576305141e-03,-1.804075861945722895e-04,-2.117472487156868248e-03
3.601751446239809251e-03,-1.804075861696082092e-04,-2.117472543861157082e-03
3.601751412903312060e-03,-1.804075861446441289e-04,-2.117472600565445482e-03
3.601751379566814435e-03,-1.804075861196800486e-04,-2.117472657269733449e-03
3.601751346230315509e-03,-1.804075860947160226e-04,-2.117472713974020981e-03
3.601751312893815716e-03,-1.804075860697519694e-04,-2.117472770678307647e-03
3.601751279557315489e-03,-1.804075860447878891e-04,-2.117472827382593879e-03
3.601751246220814395e-03,-1.804075860198238088e-04,-2.117472884086879677e-03
3.601751212884311999e-03,-1.804075859948597285e-04,-2.117472940791165041e-03
3.601751179547808736e-03,-1.804075859698957296e-04,-2.117472997495449538e-03
3.601751146211304606e-03,-1.804075859449316493e-04,-2.117473054199734035e-03
3.601751112874800043e-03,-1.804075859199675961e-04,-2.117473110904017231e-03
3.601751079538293744e-03,-1.804075858950035158e-04,-2.117473167608300427e-03
3.601751046201787446e-03,-1.804075858700394355e-04,-2.117473224312583190e-03
3.601751012865280280e-03,-1.804075858450753824e-04,-2.117473281016865085e-03
3.601750979528770946e-03,-1.804075858201113292e-04,-2.117473337721146980e-03
3.601750946192261178e-03,-1.804075857951472489e-04,-2.117473394425427573e-03
3.601750912855751843e-03,-1.804075857701831686e-04,-2.117473451129708167e-03
3.601750879519240774e-03,-1.804075857452190883e-04,-2.117473507833987894e-03
3.601750846182728404e-03,-1.804075857202550352e-04,-2.117473564538267621e-03
3.601750812846214733e-03,-1.804075856952909820e-04,-2.117473621242546480e-03
3.601750779509701496e-03,-1.804075856703269017e-04,-2.117473677946824038e-03
3.601750746173187391e-03,-1.804075856453628214e-04,-2.117473734651102030e-03
3.601750712836671118e-03,-1.804075856203987682e-04,-2.117473791355379154e-03
3.601750679500155278e-03,-1.804075855954347151e-04,-2.117473848059656279e-03
3.601750646163637271e-03,-1.804075855704706077e-04,-2.117473904763932102e-03
3.601750612827119263e-03,-1.804075855455065274e-04,-2.117473961468208359e-03
3.601750579490599954e-03,-1.804075855205424742e-04,-2.117474018172483315e-03
3.601750546154079344e-03,-1.804075854955783939e-04,-2.117474074876757838e-03
3.601750512817559167e-03,-1.804075854706143679e-04,-2.117474131581032360e-03
3.601750479481037256e-03,-1.804075854456502876e-04,-2.117474188285305581e-03
3.601750446144514912e-03,-1.804075854206861802e-04,-2.117474244989578369e-03
3.601750412807991266e-03,-1.804075853957221270e-04,-2.117474301693851157e-03
3.601750379471467187e-03,-1.804075853707580738e-04,-2.117474358398122210e-03
3.601750346134941373e-03,-1.804075853457939936e-04,-2.117474415102393696e-03
3.601750312798415558e-03,-1.804075853208299133e-04,-2.117474471806664749e-03
3.601750279461888443e-03,-1.804075852958658330e-04,-2.117474528510934935e-03
3.601750246125360027e-03,-1.804075852709017527e-04,-2.117474585215205121e-03
3.601750212788831177e-03,-1.804075852459376724e-04,-2.117474641919474439e-03
3.601750179452301460e-03,-1.804075852209736193e-04,-2.117474698623743323e-03
3.601750146115770441e-03,-1.804075851960095390e-04,-2.117474755328010907e-03
3.601750112779239423e-03,-1.804075851710454316e-04,-2.117474812032278490e-03
3.601750079442706670e-03,-1.804075851460813513e-04,-2.117474868736545640e-03
3.601750046106173050e-03,-1.804075851211172981e-04,-2.117474925440812356e-03
3.601750012769639429e-03,-1.804075850961532178e-04,-2.117474982145078639e-03
3.601749979433104508e-03,-1.804075850711891376e-04,-2.117475038849343620e-03
3.601749946096568719e-03,-1.804075850462250302e-04,-2.117475095553609469e-03
3.601749912760031196e-03,-1.804075850212609770e-04,-2.117475152257873149e-03
3.601749879423492805e-03,-1.804075849962968967e-04,-2.117475208962137263e-03
3.601749846086954848e-03,-1.804075849713327893e-04,-2.117475265666400944e-03
3.601749812750415156e-03,-1.804075849463687362e-04,-2.117475322370663757e-03
3.601749779413874596e-03,-1.804075849214046559e-04,-2.117475379074926136e-03
3.601749746077333170e-03,-1.804075848964405485e-04,-2.117475435779187214e-03
3.601749712740791309e-03,-1.804075848714764682e-04,-2.117475492483449160e-03
3.601749679404248148e-03,-1.804075848465124150e-04,-2.117475549187709805e-03
3.601749646067704119e-03,-1.804075848215483076e-04,-2.117475605891970016e-03
3.601749612731159657e-03,-1.804075847965842274e-04,-2.117475662596229359e-03
3.601749579394613460e-03,-1.804075847716201471e-04,-2.117475719300488703e-03
3.601749546058066829e-03,-1.804075847466560668e-04,-2.117475776004746745e-03
3.601749512721518463e-03,-1.804075847216919594e-04,-2.117475832709005655e-03
3.601749479384970531e-03,-1.804075846967278791e-04,-2.117475889413262830e-03
3.601749446048421299e-03,-1.804075846717637988e-04,-2.117475946117519138e-03
3.601749412711871632e-03,-1.804075846467996915e-04,-2.117476002821776313e-03
3.601749379375320231e-03,-1.804075846218356383e-04,-2.117476059526032187e-03
3.601749346038767962e-03,-1.804075845968715580e-04,-2.117476116230287194e-03
3.601749312702214826e-03,-1.804075845719074777e-04,-2.117476172934542634e-03
3.601749279365661256e-03,-1.804075845469433703e-04,-2.117476229638796340e-03
3.601749246029106819e-03,-1.804075845219792900e-04,-2.117476286343050480e-03
3.601749212692551515e-03,-1.804075844970151827e-04,-2.117476343047304185e-03
3.601749179355994909e-03,-1.804075844720511024e-04,-2.117476399751556590e-03
3.601749146019437003e-03,-1.804075844470869950e-04,-2.117476456455808995e-03
3.601749112682879530e-03,-1.804075844221229147e-04,-2.117476513160060532e-03
3.601749079346320322e-03,-1.804075843971588615e-04,-2.117476569864311202e-03
3.601749046009760247e-03,-1.804075843721947270e-04,-2.117476626568561872e-03
3.601749012673198871e-03,-1.804075843472306468e-04,-2.117476683272812108e-03
3.601748979336637495e-03,-1.804075843222665394e-04,-2.117476739977061911e-03
3.601748946000075252e-03,-1.804075842973024591e-04,-2.117476796681310846e-03
3.601748912663511274e-03,-1.804075842723384059e-04,-2.117476853385559347e-03
3.601748879326946862e-03,-1.804075842473742985e-04,-2.117476910089807415e-03
3.601748845990381583e-03,-1.804075842224101911e-04,-2.117476966794055050e-03
3.601748812653815437e-03,-1.804075841974460837e-04,-2.117477023498301383e-03
3.601748779317248423e-03,-1.804075841724819764e-04,-2.117477080202547716e-03
3.601748745980680542e-03,-1.804075841475178961e-04,-2.117477136906794049e-03
3.601748712644111360e-03,-1.804075841225538158e-04,-2.117477193611039081e-03
3.601748679307541310e-03,-1.804075840975897084e-04,-2.117477250315283679e-03
3.601748645970970827e-03,-1.804075840726256010e-04,-2.117477307019528278e-03
3.601748612634399042e-03,-1.804075840476615478e-04,-2.117477363723771575e-03
3.601748579297827692e-03,-1.804075840226974405e-04,-2.117477420428014873e-03
3.601748545961254606e-03,-1.804075839977333331e-04,-2.117477477132257303e-03
3.601748512624679786e-03,-1.804075839727692528e-04,-2.117477533836499299e-03
3.601748479288104099e-03,-1.804075839478051454e-04,-2.117477590540740862e-03
3.601748445951528845e-03,-1.804075839228410651e-04,-2.117477647244981991e-03
3.601748412614951857e-03,-1.804075838978769577e-04,-2.117477703949222252e-03
3.601748379278374001e-03,-1.804075838729128503e-04,-2.117477760653462080e-03
3.601748345941795711e-03,-1.804075838479487159e-04,-2.117477817357701908e-03
3.601748312605215253e-03,-1.804075838229846085e-04,-2.117477874061940869e-03
3.601748279268636097e-03,-1.804075837980205282e-04,-2.117477930766178962e-03
3.601748245932054338e-03,-1.804075837730564479e-04,-2.117477987470417055e-03
3.601748212595472145e-03,-1.804075837480923405e-04,-2.117478044174654715e-03
3.601748179258889519e-03,-1.804075837231282331e-04,-2.117478100878890639e-03
3.601748145922305591e-03,-1.804075836981641257e-04,-2.117478157583126998e-03
3.601748112585719929e-03,-1.804075836732000455e-04,-2.117478214287362923e-03
3.601748079249134267e-03,-1.804075836482359110e-04,-2.117478270991598414e-03
3.601748045912548171e-03,-1.804075836232717765e-04,-2.117478327695832604e-03
3.601748012575960341e-03,-1.804075835983076962e-04,-2.117478384400066360e-03
3.601747979239371643e-03,-1.804075835733436159e-04,-2.117478441104300550e-03
3.601747945902782945e-03,-1.804075835483795085e-04,-2.117478497808533439e-03
3.601747912566192079e-03,-1.804075835234154011e-04,-2.117478554512765895e-03
3.601747879229601646e-03,-1.804075834984512937e-04,-2.117478611216997916e-03
3.601747845893009045e-03,-1.804075834734871593e-04,-2.117478667921229071e-03
3.601747812556416444e-03,-1.804075834485230790e-04,-2.117478724625460225e-03
3.601747779219822542e-03,-1.804075834235589445e-04,-2.117478781329690512e-03
