ref_accel_x (m/s^2),ref_accel_y (m/s^2),ref_accel_z (m/s^2)
0.000000000000000000e+00,-1.478217465158571369e-03,-9.793537842174435681e+00
0.000000000000000000e+00,-1.478217504746170193e-03,-9.793537842886301803e+00
0.000000000000000000e+00,-1.478217544333768800e-03,-9.793537843598169701e+00
0.000000000000000000e+00,-1.478217583921366974e-03,-9.793537844310035823e+00
0.000000000000000000e+00,-1.478217623508965147e-03,-9.793537845021903721e+00
0.000000000000000000e+00,-1.478217663096562454e-03,-9.793537845733768066e+00
0.000000000000000000e+00,-1.478217702684159977e-03,-9.793537846445637740e+00
0.000000000000000000e+00,-1.478217742271756632e-03,-9.793537847157502085e+00
0.000000000000000000e+00,-1.478217781859353288e-03,-9.793537847869371760e+00
0.000000000000000000e+00,-1.478217821446949076e-03,-9.793537848581234329e+00
0.000000000000000000e+00,-1.478217861034544865e-03,-9.793537849293104003e+00
0.000000000000000000e+00,-1.478217900622140219e-03,-9.793537850004970124e+00
0.000000000000000000e+00,-1.478217940209735357e-03,-9.793537850716838022e+00
0.000000000000000000e+00,-1.478217979797329627e-03,-9.793537851428704144e+00
0.000000000000000000e+00,-1.478218019384923898e-03,-9.793537852140572042e+00
0.000000000000000000e+00,-1.478218058972517734e-03,-9.793537852852438164e+00
0.000000000000000000e+00,-1.478218098560110921e-03,-9.793537853564306062e+00
0.000000000000000000e+00,-1.478218138147704541e-03,-9.793537854276172183e+00
0.000000000000000000e+00,-1.478218177735297076e-03,-9.793537854988036528e+00
0.000000000000000000e+00,-1.478218217322889612e-03,-9.793537855699907979e+00
0.000000000000000000e+00,-1.478218256910481280e-03,-9.793537856411770548e+00
0.000000000000000000e+00,-1.478218296498072949e-03,-9.793537857123640222e+00
0.000000000000000000e+00,-1.478218336085664400e-03,-9.793537857835504568e+00
0.000000000000000000e+00,-1.478218375673254984e-03,-9.793537858547374242e+00
0.000000000000000000e+00,-1.478218415260845568e-03,-9.793537859259238587e+00
0.000000000000000000e+00,-1.478218454848435936e-03,-9.793537859971108261e+00
0.000000000000000000e+00,-1.478218494436025219e-03,-9.793537860682974383e+00
0.000000000000000000e+00,-1.478218534023614935e-03,-9.793537861394840505e+00
0.000000000000000000e+00,-1.478218573611203785e-03,-9.793537862106710179e+00
0.000000000000000000e+00,-1.478218613198792634e-03,-9.793537862818574524e+00
0.000000000000000000e+00,-1.478218652786380833e-03,-9.793537863530442422e+00
0.000000000000000000e+00,-1.478218692373968815e-03,-9.793537864242306767e+00
0.000000000000000000e+00,-1.478218731961556147e-03,-9.793537864954176442e+00
0.000000000000000000e+00,-1.478218771549143478e-03,-9.793537865666040787e+00
0.000000000000000000e+00,-1.478218811136730159e-03,-9.793537866377910461e+00
0.000000000000000000e+00,-1.478218850724316406e-03,-9.793537867089776583e+00
0.000000000000000000e+00,-1.478218890311902437e-03,-9.793537867801642705e+00
0.000000000000000000e+00,-1.478218929899488467e-03,-9.793537868513512379e+00
0.000000000000000000e+00,-1.478218969487073630e-03,-9.793537869225378500e+00
0.000000000000000000e+00,-1.478219009074658577e-03,-9.793537869937246398e+00
0.000000000000000000e+00,-1.478219048662242872e-03,-9.793537870649110744e+00
0.000000000000000000e+00,-1.478219088249827168e-03,-9.793537871360978642e+00
0.000000000000000000e+00,-1.478219127837410813e-03,-9.793537872072848316e+00
0.000000000000000000e+00,-1.478219167424994242e-03,-9.793537872784712661e+00
0.000000000000000000e+00,-1.478219207012577670e-03,-9.793537873496580559e+00
0.000000000000000000e+00,-1.478219246600160014e-03,-9.793537874208446681e+00
0.000000000000000000e+00,-1.478219286187742575e-03,-9.793537874920314579e+00
0.000000000000000000e+00,-1.478219325775324486e-03,-9.793537875632184253e+00
0.000000000000000000e+00,-1.478219365362906179e-03,-9.793537876344048598e+00
0.000000000000000000e+00,-1.478219404950487439e-03,-9.793537877055918273e+00
0.000000000000000000e+00,-1.478219444538068049e-03,-9.793537877767784394e+00
0.000000000000000000e+00,-1.478219484125648442e-03,-9.793537878479652292e+00
0.000000000000000000e+00,-1.478219523713228617e-03,-9.793537879191516637e+00
0.000000000000000000e+00,-1.478219563300808143e-03,-9.793537879903386312e+00
0.000000000000000000e+00,-1.478219602888387885e-03,-9.793537880615252433e+00
0.000000000000000000e+00,-1.478219642475966759e-03,-9.793537881327118555e+00
0.000000000000000000e+00,-1.478219682063545200e-03,-9.793537882038988229e+00
0.000000000000000000e+00,-1.478219721651123425e-03,-9.793537882750856127e+00
0.000000000000000000e+00,-1.478219761238700998e-03,-9.793537883462722249e+00
0.000000000000000000e+00,-1.478219800826278789e-03,-9.793537884174590147e+00
0.000000000000000000e+00,-1.478219840413855929e-03,-9.793537884886456268e+00
0.000000000000000000e+00,-1.478219880001432635e-03,-9.793537885598325943e+00
0.000000000000000000e+00,-1.478219919589008908e-03,-9.793537886310192064e+00
0.000000000000000000e+00,-1.478219959176584747e-03,-9.793537887022058186e+00
0.000000000000000000e+00,-1.478219998764160803e-03,-9.793537887733927860e+00
0.000000000000000000e+00,-1.478220038351735991e-03,-9.793537888445793982e+00
0.000000000000000000e+00,-1.478220077939310963e-03,-9.793537889157661880e+00
0.000000000000000000e+00,-1.478220117526885067e-03,-9.793537889869529778e+00
0.000000000000000000e+00,-1.478220157114459388e-03,-9.793537890581395899e+00
0.000000000000000000e+00,-1.478220196702033275e-03,-9.793537891293263797e+00
0.000000000000000000e+00,-1.478220236289606512e-03,-9.793537892005133472e+00
0.000000000000000000e+00,-1.478220275877179532e-03,-9.793537892716999593e+00
0.000000000000000000e+00,-1.478220315464752119e-03,-9.793537893428867491e+00
0.000000000000000000e+00,-1.478220355052324705e-03,-9.793537894140733613e+00
0.000000000000000000e+00,-1.478220394639896424e-03,-9.793537894852599734e+00
0.000000000000000000e+00,-1.478220434227467709e-03,-9.793537895564469409e+00
0.000000000000000000e+00,-1.478220473815038995e-03,-9.793537896276339083e+00
0.000000000000000000e+00,-1.478220513402610063e-03,-9.793537896988205205e+00
0.000000000000000000e+00,-1.478220552990180264e-03,-9.793537897700071326e+00
0.000000000000000000e+00,-1.478220592577750032e-03,-9.793537898411941001e+00
0.000000000000000000e+00,-1.478220632165319799e-03,-9.793537899123807122e+00
0.000000000000000000e+00,-1.478220671752889133e-03,-9.793537899835676797e+00
0.000000000000000000e+00,-1.478220711340458250e-03,-9.793537900547542918e+00
0.000000000000000000e+00,-1.478220750928026716e-03,-9.793537901259409040e+00
0.000000000000000000e+00,-1.478220790515594966e-03,-9.793537901971276938e+00
0.000000000000000000e+00,-1.478220830103162565e-03,-9.793537902683146612e+00
0.000000000000000000e+00,-1.478220869690730381e-03,-9.793537903395012734e+00
0.000000000000000000e+00,-1.478220909278297329e-03,-9.793537904106882408e+00
0.000000000000000000e+00,-1.478220948865863844e-03,-9.793537904818748530e+00
0.000000000000000000e+00,-1.478220988453430359e-03,-9.793537905530616428e+00
0.000000000000000000e+00,-1.478221028040996006e-03,-9.793537906242484326e+00
0.000000000000000000e+00,-1.478221067628562087e-03,-9.793537906954354000e+00
0.000000000000000000e+00,-1.478221107216127084e-03,-9.793537907666220121e+00
0.000000000000000000e+00,-1.478221146803692081e-03,-9.793537908378088019e+00
0.000000000000000000e+00,-1.478221186391256211e-03,-9.793537909089954141e+00
0.000000000000000000e+00,-1.478221225978820341e-03,-9.793537909801823815e+00
0.000000000000000000e+00,-1.478221265566384036e-03,-9.793537910513689937e+00
0.000000000000000000e+00,-1.478221305153947516e-03,-9.793537911225559611e+00
0.000000000000000000e+00,-1.478221344741510344e-03,-9.793537911937425733e+00
0.000000000000000000e+00,-1.478221384329073173e-03,-9.793537912649295407e+00
0.000000000000000000e+00,-1.478221423916635134e-03,-9.793537913361163305e+00
0.000000000000000000e+00,-1.478221463504197312e-03,-9.793537914073032979e+00
0.000000000000000000e+00,-1.478221503091758622e-03,-9.793537914784897325e+00
0.000000000000000000e+00,-1.478221542679319499e-03,-9.793537915496768775e+00
0.000000000000000000e+00,-1.478221582266880593e-03,-9.793537916208634897e+00
0.000000000000000000e+00,-1.478221621854440603e-03,-9.793537916920501019e+00
0.000000000000000000e+00,-1.478221661442000829e-03,-9.793537917632368917e+00
0.000000000000000000e+00,-1.478221701029560622e-03,-9.793537918344238591e+00
0.000000000000000000e+00,-1.478221740617119764e-03,-9.793537919056106489e+00
0.000000000000000000e+00,-1.478221780204678690e-03,-9.793537919767974387e+00
0.000000000000000000e+00,-1.478221819792237181e-03,-9.793537920479842285e+00
0.000000000000000000e+00,-1.478221859379795240e-03,-9.793537921191711959e+00
0.000000000000000000e+00,-1.478221898967353081e-03,-9.793537921903578081e+00
0.000000000000000000e+00,-1.478221938554910488e-03,-9.793537922615447755e+00
0.000000000000000000e+00,-1.478221978142467245e-03,-9.793537923327315653e+00
0.000000000000000000e+00,-1.478222017730024219e-03,-9.793537924039183551e+00
0.000000000000000000e+00,-1.478222057317580542e-03,-9.793537924751047896e+00
0.000000000000000000e+00,-1.478222096905136215e-03,-9.793537925462919347e+00
0.000000000000000000e+00,-1.478222136492692105e-03,-9.793537926174787245e+00
0.000000000000000000e+00,-1.478222176080247344e-03,-9.793537926886656919e+00
0.000000000000000000e+00,-1.478222215667801716e-03,-9.793537927598523041e+00
0.000000000000000000e+00,-1.478222255255356521e-03,-9.793537928310390939e+00
0.000000000000000000e+00,-1.478222294842910459e-03,-9.793537929022258837e+00
0.000000000000000000e+00,-1.478222334430463964e-03,-9.793537929734130287e+00
0.000000000000000000e+00,-1.478222374018017251e-03,-9.793537930445996409e+00
0.000000000000000000e+00,-1.478222413605570322e-03,-9.793537931157866083e+00
0.000000000000000000e+00,-1.478222453193122742e-03,-9.793537931869732205e+00
0.000000000000000000e+00,-1.478222492780675162e-03,-9.793537932581600103e+00
0.000000000000000000e+00,-1.478222532368226932e-03,-9.793537933293466224e+00
0.000000000000000000e+00,-1.478222571955778051e-03,-9.793537934005337675e+00
0.000000000000000000e+00,-1.478222611543329387e-03,-9.793537934717205573e+00
0.000000000000000000e+00,-1.478222651130880073e-03,-9.793537935429075247e+00
0.000000000000000000e+00,-1.478222690718430758e-03,-9.793537936140941369e+00
0.000000000000000000e+00,-1.478222730305980359e-03,-9.793537936852811043e+00
0.000000000000000000e+00,-1.478222769893529961e-03,-9.793537937564678941e+00
0.000000000000000000e+00,-1.478222809481079128e-03,-9.793537938276548616e+00
0.000000000000000000e+00,-1.478222849068628079e-03,-9.793537938988412961e+00
0.000000000000000000e+00,-1.478222888656176596e-03,-9.793537939700282635e+00
0.000000000000000000e+00,-1.478222928243724463e-03,-9.793537940412150533e+00
0.000000000000000000e+00,-1.478222967831272546e-03,-9.793537941124020207e+00
0.000000000000000000e+00,-1.478223007418819762e-03,-9.793537941835888105e+00
0.000000000000000000e+00,-1.478223047006366545e-03,-9.793537942547756003e+00
0.000000000000000000e+00,-1.478223086593913327e-03,-9.793537943259623901e+00
0.000000000000000000e+00,-1.478223126181459459e-03,-9.793537943971493576e+00
0.000000000000000000e+00,-1.478223165769005157e-03,-9.793537944683363250e+00
0.000000000000000000e+00,-1.478223205356550638e-03,-9.793537945395232924e+00
0.000000000000000000e+00,-1.478223244944095903e-03,-9.793537946107099046e+00
0.000000000000000000e+00,-1.478223284531640733e-03,-9.793537946818966944e+00
0.000000000000000000e+00,-1.478223324119185347e-03,-9.793537947530834842e+00
0.000000000000000000e+00,-1.478223363706729094e-03,-9.793537948242704516e+00
0.000000000000000000e+00,-1.478223403294272841e-03,-9.793537948954572414e+00
0.000000000000000000e+00,-1.478223442881816153e-03,-9.793537949666440312e+00
0.000000000000000000e+00,-1.478223482469359033e-03,-9.793537950378308210e+00
0.000000000000000000e+00,-1.478223522056901478e-03,-9.793537951090177884e+00
0.000000000000000000e+00,-1.478223561644443490e-03,-9.793537951802047559e+00
0.000000000000000000e+00,-1.478223601231985502e-03,-9.793537952513917233e+00
0.000000000000000000e+00,-1.478223640819526863e-03,-9.793537953225783355e+00
0.000000000000000000e+00,-1.478223680407068225e-03,-9.793537953937651253e+00
0.000000000000000000e+00,-1.478223719994608935e-03,-9.793537954649519151e+00
0.000000000000000000e+00,-1.478223759582148996e-03,-9.793537955361388825e+00
0.000000000000000000e+00,-1.478223799169689056e-03,-9.793537956073260276e+00
0.000000000000000000e+00,-1.478223838757228249e-03,-9.793537956785128173e+00
0.000000000000000000e+00,-1.478223878344767876e-03,-9.793537957496994295e+00
0.000000000000000000e+00,-1.478223917932306201e-03,-9.793537958208863969e+00
0.000000000000000000e+00,-1.478223957519844960e-03,-9.793537958920733644e+00
0.000000000000000000e+00,-1.478223997107383069e-03,-9.793537959632601542e+00
0.000000000000000000e+00,-1.478224036694920527e-03,-9.793537960344471216e+00
0.000000000000000000e+00,-1.478224076282457769e-03,-9.793537961056340890e+00
0.000000000000000000e+00,-1.478224115869995227e-03,-9.793537961768207012e+00
0.000000000000000000e+00,-1.478224155457531384e-03,-9.793537962480074910e+00
0.000000000000000000e+00,-1.478224195045067758e-03,-9.793537963191944584e+00
0.000000000000000000e+00,-1.478224234632603482e-03,-9.793537963903814259e+00
0.000000000000000000e+00,-1.478224274220138988e-03,-9.793537964615683933e+00
0.000000000000000000e+00,-1.478224313807674061e-03,-9.793537965327551831e+00
0.000000000000000000e+00,-1.478224353395208700e-03,-9.793537966039421505e+00
0.000000000000000000e+00,-1.478224392982743340e-03,-9.793537966751289403e+00
0.000000000000000000e+00,-1.478224432570277112e-03,-9.793537967463159077e+00
0.000000000000000000e+00,-1.478224472157810667e-03,-9.793537968175026975e+00
0.000000000000000000e+00,-1.478224511745344005e-03,-9.793537968886896650e+00
0.000000000000000000e+00,-1.478224551332876476e-03,-9.793537969598764548e+00
0.000000000000000000e+00,-1.478224590920409597e-03,-9.793537970310634222e+00
0.000000000000000000e+00,-1.478224630507941418e-03,-9.793537971022503896e+00
0.000000000000000000e+00,-1.478224670095473238e-03,-9.793537971734370018e+00
0.000000000000000000e+00,-1.478224709683004841e-03,-9.793537972446239692e+00
0.000000000000000000e+00,-1.478224749270535361e-03,-9.793537973158109367e+00
0.000000000000000000e+00,-1.478224788858066097e-03,-9.793537973869979041e+00
0.000000000000000000e+00,-1.478224828445596399e-03,-9.793537974581846939e+00
0.000000000000000000e+00,-1.478224868033126268e-03,-9.793537975293718389e+00
0.000000000000000000e+00,-1.478224907620655703e-03,-9.793537976005586287e+00
0.000000000000000000e+00,-1.478224947208184922e-03,-9.793537976717454185e+00
0.000000000000000000e+00,-1.478224986795713489e-03,-9.793537977429323860e+00
0.000000000000000000e+00,-1.478225026383242057e-03,-9.793537978141191758e+00
0.000000000000000000e+00,-1.478225065970770191e-03,-9.793537978853059656e+00
0.000000000000000000e+00,-1.478225105558297675e-03,-9.793537979564931106e+00
0.000000000000000000e+00,-1.478225145145824725e-03,-9.793537980276799004e+00
0.000000000000000000e+00,-1.478225184733351558e-03,-9.793537980988668679e+00
0.000000000000000000e+00,-1.478225224320878608e-03,-9.793537981700536577e+00
0.000000000000000000e+00,-1.478225263908404790e-03,-9.793537982412408027e+00
0.000000000000000000e+00,-1.478225303495930539e-03,-9.793537983124277702e+00
0.000000000000000000e+00,-1.478225343083455637e-03,-9.793537983836145600e+00
0.000000000000000000e+00,-1.478225382670980952e-03,-9.793537984548015274e+00
0.000000000000000000e+00,-1.478225422258505617e-03,-9.793537985259881395e+00
0.000000000000000000e+00,-1.478225461846029848e-03,-9.793537985971751070e+00
0.000000000000000000e+00,-1.478225501433554079e-03,-9.793537986683618968e+00
0.000000000000000000e+00,-1.478225541021077442e-03,-9.793537987395490418e+00
0.000000000000000000e+00,-1.478225580608600372e-03,-9.793537988107358316e+00
0.000000000000000000e+00,-1.478225620196123302e-03,-9.793537988819227991e+00
0.000000000000000000e+00,-1.478225659783645798e-03,-9.793537989531097665e+00
0.000000000000000000e+00,-1.478225699371167644e-03,-9.793537990242967339e+00
0.000000000000000000e+00,-1.478225738958689490e-03,-9.793537990954837014e+00
0.000000000000000000e+00,-1.478225778546210902e-03,-9.793537991666704912e+00
0.000000000000000000e+00,-1.478225818133731880e-03,-9.793537992378576362e+00
0.000000000000000000e+00,-1.478225857721252642e-03,-9.793537993090444260e+00
0.000000000000000000e+00,-1.478225897308772969e-03,-9.793537993802315711e+00
0.000000000000000000e+00,-1.478225936896292647e-03,-9.793537994514181833e+00
0.000000000000000000e+00,-1.478225976483811890e-03,-9.793537995226051507e+00
0.000000000000000000e+00,-1.478226016071330917e-03,-9.793537995937921181e+00
0.000000000000000000e+00,-1.478226055658849510e-03,-9.793537996649790855e+00
0.000000000000000000e+00,-1.478226095246368103e-03,-9.793537997361658753e+00
0.000000000000000000e+00,-1.478226134833886046e-03,-9.793537998073530204e+00
0.000000000000000000e+00,-1.478226174421403555e-03,-9.793537998785398102e+00
0.000000000000000000e+00,-1.478226214008920630e-03,-9.793537999497267776e+00
0.000000000000000000e+00,-1.478226253596437705e-03,-9.793538000209135674e+00
0.000000000000000000e+00,-1.478226293183954130e-03,-9.793538000921007125e+00
0.000000000000000000e+00,-1.478226332771470555e-03,-9.793538001632876799e+00
0.000000000000000000e+00,-1.478226372358986112e-03,-9.793538002344746474e+00
0.000000000000000000e+00,-1.478226411946501452e-03,-9.793538003056616148e+00
0.000000000000000000e+00,-1.478226451534016576e-03,-9.793538003768484046e+00
0.000000000000000000e+00,-1.478226491121531483e-03,-9.793538004480355497e+00
0.000000000000000000e+00,-1.478226530709045522e-03,-9.793538005192223395e+00
0.000000000000000000e+00,-1.478226570296559562e-03,-9.793538005904094845e+00
0.000000000000000000e+00,-1.478226609884072734e-03,-9.793538006615962743e+00
0.000000000000000000e+00,-1.478226649471585906e-03,-9.793538007327832418e+00
0.000000000000000000e+00,-1.478226689059098644e-03,-9.793538008039702092e+00
0.000000000000000000e+00,-1.478226728646611383e-03,-9.793538008751571766e+00
0.000000000000000000e+00,-1.478226768234123471e-03,-9.793538009463441441e+00
0.000000000000000000e+00,-1.478226807821635125e-03,-9.793538010175309338e+00
0.000000000000000000e+00,-1.478226847409146128e-03,-9.793538010887180789e+00
0.000000000000000000e+00,-1.478226886996657132e-03,-9.793538011599050463e+00
0.000000000000000000e+00,-1.478226926584167702e-03,-9.793538012310920138e+00
0.000000000000000000e+00,-1.478226966171677838e-03,-9.793538013022791588e+00
0.000000000000000000e+00,-1.478227005759187758e-03,-9.793538013734659486e+00
0.000000000000000000e+00,-1.478227045346697027e-03,-9.793538014446529161e+00
0.000000000000000000e+00,-1.478227084934205862e-03,-9.793538015158397059e+00
0.000000000000000000e+00,-1.478227124521714481e-03,-9.793538015870268509e+00
0.000000000000000000e+00,-1.478227164109223099e-03,-9.793538016582136407e+00
0.000000000000000000e+00,-1.478227203696731284e-03,-9.793538017294007858e+00
0.000000000000000000e+00,-1.478227243284238601e-03,-9.793538018005875756e+00
0.000000000000000000e+00,-1.478227282871746135e-03,-9.793538018717747207e+00
0.000000000000000000e+00,-1.478227322459252585e-03,-9.793538019429616881e+00
0.000000000000000000e+00,-1.478227362046759035e-03,-9.793538020141486555e+00
0.000000000000000000e+00,-1.478227401634265485e-03,-9.793538020853358006e+00
0.000000000000000000e+00,-1.478227441221771068e-03,-9.793538021565225904e+00
0.000000000000000000e+00,-1.478227480809276434e-03,-9.793538022277095578e+00
0.000000000000000000e+00,-1.478227520396781149e-03,-9.793538022988963476e+00
0.000000000000000000e+00,-1.478227559984285865e-03,-9.793538023700834927e+00
0.000000000000000000e+00,-1.478227599571790146e-03,-9.793538024412704601e+00
0.000000000000000000e+00,-1.478227639159293994e-03,-9.793538025124574276e+00
0.000000000000000000e+00,-1.478227678746797408e-03,-9.793538025836445726e+00
0.000000000000000000e+00,-1.478227718334300389e-03,-9.793538026548313624e+00
0.000000000000000000e+00,-1.478227757921803153e-03,-9.793538027260185075e+00
0.000000000000000000e+00,-1.478227797509305483e-03,-9.793538027972054749e+00
0.000000000000000000e+00,-1.478227837096807596e-03,-9.793538028683924423e+00
0.000000000000000000e+00,-1.478227876684308842e-03,-9.793538029395792321e+00
0.000000000000000000e+00,-1.478227916271810521e-03,-9.793538030107661996e+00
0.000000000000000000e+00,-1.478227955859311334e-03,-9.793538030819531670e+00
0.000000000000000000e+00,-1.478227995446811712e-03,-9.793538031531403121e+00
0.000000000000000000e+00,-1.478228035034311657e-03,-9.793538032243272795e+00
0.000000000000000000e+00,-1.478228074621811602e-03,-9.793538032955142469e+00
0.000000000000000000e+00,-1.478228114209311113e-03,-9.793538033667012144e+00
0.000000000000000000e+00,-1.478228153796810190e-03,-9.793538034378881818e+00
0.000000000000000000e+00,-1.478228193384308834e-03,-9.793538035090753269e+00
0.000000000000000000e+00,-1.478228232971807478e-03,-9.793538035802624719e+00
0.000000000000000000e+00,-1.478228272559304821e-03,-9.793538036514494394e+00
0.000000000000000000e+00,-1.478228312146802380e-03,-9.793538037226364068e+00
0.000000000000000000e+00,-1.478228351734299289e-03,-9.793538037938233742e+00
0.000000000000000000e+00,-1.478228391321796415e-03,-9.793538038650103417e+00
0.000000000000000000e+00,-1.478228430909292674e-03,-9.793538039361973091e+00
0.000000000000000000e+00,-1.478228470496789149e-03,-9.793538040073844542e+00
0.000000000000000000e+00,-1.478228510084284540e-03,-9.793538040785714216e+00
0.000000000000000000e+00,-1.478228549671780148e-03,-9.793538041497583890e+00
0.000000000000000000e+00,-1.478228589259274889e-03,-9.793538042209455341e+00
0.000000000000000000e+00,-1.478228628846769196e-03,-9.793538042921325015e+00
0.000000000000000000e+00,-1.478228668434263503e-03,-9.793538043633194690e+00
0.000000000000000000e+00,-1.478228708021757376e-03,-9.793538044345062588e+00
0.000000000000000000e+00,-1.478228747609250599e-03,-9.793538045056932262e+00
0.000000000000000000e+00,-1.478228787196743822e-03,-9.793538045768805489e+00
0.000000000000000000e+00,-1.478228826784236611e-03,-9.793538046480675163e+00
0.000000000000000000e+00,-1.478228866371728749e-03,-9.793538047192544838e+00
0.000000000000000000e+00,-1.478228905959221105e-03,-9.793538047904416288e+00
0.000000000000000000e+00,-1.478228945546712593e-03,-9.793538048616285963e+00
0.000000000000000000e+00,-1.478228985134203647e-03,-9.793538049328155637e+00
0.000000000000000000e+00,-1.478229024721694485e-03,-9.793538050040027088e+00
0.000000000000000000e+00,-1.478229064309184455e-03,-9.793538050751896762e+00
0.000000000000000000e+00,-1.478229103896675292e-03,-9.793538051463766436e+00
0.000000000000000000e+00,-1.478229143484164612e-03,-9.793538052175636111e+00
0.000000000000000000e+00,-1.478229183071654365e-03,-9.793538052887507561e+00
0.000000000000000000e+00,-1.478229222659143034e-03,-9.793538053599379012e+00
0.000000000000000000e+00,-1.478229262246631703e-03,-9.793538054311248686e+00
0.000000000000000000e+00,-1.478229301834119722e-03,-9.793538055023118361e+00
0.000000000000000000e+00,-1.478229341421607741e-03,-9.793538055734989811e+00
0.000000000000000000e+00,-1.478229381009095109e-03,-9.793538056446857709e+00
0.000000000000000000e+00,-1.478229420596582043e-03,-9.793538057158729160e+00
0.000000000000000000e+00,-1.478229460184068977e-03,-9.793538057870598834e+00
0.000000000000000000e+00,-1.478229499771555478e-03,-9.793538058582472061e+00
0.000000000000000000e+00,-1.478229539359041328e-03,-9.793538059294343512e+00
0.000000000000000000e+00,-1.478229578946527178e-03,-9.793538060006211410e+00
0.000000000000000000e+00,-1.478229618534012378e-03,-9.793538060718081084e+00
0.000000000000000000e+00,-1.478229658121497144e-03,-9.793538061429950758e+00
0.000000000000000000e+00,-1.478229697708981910e-03,-9.793538062141822209e+00
0.000000000000000000e+00,-1.478229737296465809e-03,-9.793538062853691883e+00
0.000000000000000000e+00,-1.478229776883949707e-03,-9.793538063565563334e+00
0.000000000000000000e+00,-1.478229816471432955e-03,-9.793538064277436561e+00
0.000000000000000000e+00,-1.478229856058916204e-03,-9.793538064989304459e+00
0.000000000000000000e+00,-1.478229895646398801e-03,-9.793538065701175910e+00
0.000000000000000000e+00,-1.478229935233880748e-03,-9.793538066413045584e+00
0.000000000000000000e+00,-1.478229974821362912e-03,-9.793538067124915258e+00
0.000000000000000000e+00,-1.478230014408844425e-03,-9.793538067836786709e+00
0.000000000000000000e+00,-1.478230053996325939e-03,-9.793538068548658160e+00
0.000000000000000000e+00,-1.478230093583806368e-03,-9.793538069260527834e+00
0.000000000000000000e+00,-1.478230133171287014e-03,-9.793538069972399285e+00
0.000000000000000000e+00,-1.478230172758767226e-03,-9.793538070684268959e+00
0.000000000000000000e+00,-1.478230212346246571e-03,-9.793538071396140410e+00
0.000000000000000000e+00,-1.478230251933726133e-03,-9.793538072108010084e+00
0.000000000000000000e+00,-1.478230291521204611e-03,-9.793538072819881535e+00
0.000000000000000000e+00,-1.478230331108683522e-03,-9.793538073531752985e+00
0.000000000000000000e+00,-1.478230370696161783e-03,-9.793538074243624436e+00
0.000000000000000000e+00,-1.478230410283639393e-03,-9.793538074955494110e+00
0.000000000000000000e+00,-1.478230449871116570e-03,-9.793538075667363785e+00
0.000000000000000000e+00,-1.478230489458593746e-03,-9.793538076379233459e+00
0.000000000000000000e+00,-1.478230529046070489e-03,-9.793538077091106686e+00
0.000000000000000000e+00,-1.478230568633547015e-03,-9.793538077802976360e+00
0.000000000000000000e+00,-1.478230608221022891e-03,-9.793538078514847811e+00
0.000000000000000000e+00,-1.478230647808498333e-03,-9.793538079226717485e+00
0.000000000000000000e+00,-1.478230687395973774e-03,-9.793538079938588936e+00
0.000000000000000000e+00,-1.478230726983448349e-03,-9.793538080650458610e+00
0.000000000000000000e+00,-1.478230766570923140e-03,-9.793538081362331837e+00
0.000000000000000000e+00,-1.478230806158397064e-03,-9.793538082074201512e+00
0.000000000000000000e+00,-1.478230845745870771e-03,-9.793538082786071186e+00
0.000000000000000000e+00,-1.478230885333344478e-03,-9.793538083497942637e+00
0.000000000000000000e+00,-1.478230924920817318e-03,-9.793538084209812311e+00
0.000000000000000000e+00,-1.478230964508289724e-03,-9.793538084921683762e+00
0.000000000000000000e+00,-1.478231004095762130e-03,-9.793538085633556989e+00
0.000000000000000000e+00,-1.478231043683233886e-03,-9.793538086345426663e+00
0.000000000000000000e+00,-1.478231083270705425e-03,-9.793538087057298114e+00
0.000000000000000000e+00,-1.478231122858176530e-03,-9.793538087769167788e+00
0.000000000000000000e+00,-1.478231162445647201e-03,-9.793538088481041015e+00
0.000000000000000000e+00,-1.478231202033117656e-03,-9.793538089192912466e+00
0.000000000000000000e+00,-1.478231241620587676e-03,-9.793538089904778587e+00
0.000000000000000000e+00,-1.478231281208057047e-03,-9.793538090616651814e+00
0.000000000000000000e+00,-1.478231320795526634e-03,-9.793538091328521489e+00
0.000000000000000000e+00,-1.478231360382995570e-03,-9.793538092040394716e+00
0.000000000000000000e+00,-1.478231399970463857e-03,-9.793538092752266166e+00
0.000000000000000000e+00,-1.478231439557932143e-03,-9.793538093464135841e+00
0.000000000000000000e+00,-1.478231479145399995e-03,-9.793538094176007291e+00
0.000000000000000000e+00,-1.478231518732867414e-03,-9.793538094887878742e+00
0.000000000000000000e+00,-1.478231558320334182e-03,-9.793538095599750193e+00
0.000000000000000000e+00,-1.478231597907800950e-03,-9.793538096311621644e+00
0.000000000000000000e+00,-1.478231637495267502e-03,-9.793538097023489541e+00
0.000000000000000000e+00,-1.478231677082733186e-03,-9.793538097735362769e+00
0.000000000000000000e+00,-1.478231716670198870e-03,-9.793538098447232443e+00
0.000000000000000000e+00,-1.478231756257663903e-03,-9.793538099159103893e+00
0.000000000000000000e+00,-1.478231795845128937e-03,-9.793538099870975344e+00
0.000000000000000000e+00,-1.478231835432593103e-03,-9.793538100582846795e+00
0.000000000000000000e+00,-1.478231875020057269e-03,-9.793538101294718246e+00
0.000000000000000000e+00,-1.478231914607520785e-03,-9.793538102006589696e+00
0.000000000000000000e+00,-1.478231954194984300e-03,-9.793538102718461147e+00
0.000000000000000000e+00,-1.478231993782447382e-03,-9.793538103430332598e+00
0.000000000000000000e+00,-1.478232033369909814e-03,-9.793538104142204048e+00
0.000000000000000000e+00,-1.478232072957372245e-03,-9.793538104854071946e+00
0.000000000000000000e+00,-1.478232112544833809e-03,-9.793538105565945173e+00
0.000000000000000000e+00,-1.478232152132295373e-03,-9.793538106277816624e+00
0.000000000000000000e+00,-1.478232191719756504e-03,-9.793538106989688075e+00
0.000000000000000000e+00,-1.478232231307216767e-03,-9.793538107701557749e+00
0.000000000000000000e+00,-1.478232270894677463e-03,-9.793538108413430976e+00
0.000000000000000000e+00,-1.478232310482137726e-03,-9.793538109125302427e+00
0.000000000000000000e+00,-1.478232350069597122e-03,-9.793538109837172101e+00
0.000000000000000000e+00,-1.478232389657056518e-03,-9.793538110549043552e+00
0.000000000000000000e+00,-1.478232429244515263e-03,-9.793538111260918555e+00
0.000000000000000000e+00,-1.478232468831973574e-03,-9.793538111972788229e+00
0.000000000000000000e+00,-1.478232508419431886e-03,-9.793538112684657904e+00
0.000000000000000000e+00,-1.478232548006889547e-03,-9.793538113396527578e+00
0.000000000000000000e+00,-1.478232587594346774e-03,-9.793538114108400805e+00
0.000000000000000000e+00,-1.478232627181803784e-03,-9.793538114820274032e+00
0.000000000000000000e+00,-1.478232666769260578e-03,-9.793538115532141930e+00
0.000000000000000000e+00,-1.478232706356716938e-03,-9.793538116244016933e+00
0.000000000000000000e+00,-1.478232745944172647e-03,-9.793538116955888384e+00
0.000000000000000000e+00,-1.478232785531628140e-03,-9.793538117667758058e+00
0.000000000000000000e+00,-1.478232825119083198e-03,-9.793538118379631285e+00
0.000000000000000000e+00,-1.478232864706537824e-03,-9.793538119091500960e+00
0.000000000000000000e+00,-1.478232904293992449e-03,-9.793538119803372410e+00
0.000000000000000000e+00,-1.478232943881446423e-03,-9.793538120515243861e+00
0.000000000000000000e+00,-1.478232983468899964e-03,-9.793538121227115312e+00
0.000000000000000000e+00,-1.478233023056353289e-03,-9.793538121938986762e+00
0.000000000000000000e+00,-1.478233062643806396e-03,-9.793538122650858213e+00
0.000000000000000000e+00,-1.478233102231258636e-03,-9.793538123362729664e+00
0.000000000000000000e+00,-1.478233141818711092e-03,-9.793538124074602891e+00
0.000000000000000000e+00,-1.478233181406162465e-03,-9.793538124786472565e+00
0.000000000000000000e+00,-1.478233220993613838e-03,-9.793538125498345792e+00
0.000000000000000000e+00,-1.478233260581065427e-03,-9.793538126210219019e+00
0.000000000000000000e+00,-1.478233300168515932e-03,-9.793538126922088694e+00
0.000000000000000000e+00,-1.478233339755966221e-03,-9.793538127633960144e+00
0.000000000000000000e+00,-1.478233379343416075e-03,-9.793538128345831595e+00
0.000000000000000000e+00,-1.478233418930865930e-03,-9.793538129057701269e+00
0.000000000000000000e+00,-1.478233458518314917e-03,-9.793538129769576273e+00
0.000000000000000000e+00,-1.478233498105763688e-03,-9.793538130481445947e+00
0.000000000000000000e+00,-1.478233537693212024e-03,-9.793538131193317398e+00
0.000000000000000000e+00,-1.478233577280660144e-03,-9.793538131905190625e+00
0.000000000000000000e+00,-1.478233616868107831e-03,-9.793538132617060299e+00
0.000000000000000000e+00,-1.478233656455555083e-03,-9.793538133328933526e+00
0.000000000000000000e+00,-1.478233696043002119e-03,-9.793538134040806753e+00
0.000000000000000000e+00,-1.478233735630448938e-03,-9.793538134752674651e+00
0.000000000000000000e+00,-1.478233775217894889e-03,-9.793538135464547878e+00
0.000000000000000000e+00,-1.478233814805340841e-03,-9.793538136176421105e+00
0.000000000000000000e+00,-1.478233854392786359e-03,-9.793538136888290779e+00
0.000000000000000000e+00,-1.478233893980231660e-03,-9.793538137600164006e+00
0.000000000000000000e+00,-1.478233933567675877e-03,-9.793538138312035457e+00
0.000000000000000000e+00,-1.478233973155120310e-03,-9.793538139023906908e+00
0.000000000000000000e+00,-1.478234012742564744e-03,-9.793538139735781911e+00
0.000000000000000000e+00,-1.478234052330007660e-03,-9.793538140447651585e+00
0.000000000000000000e+00,-1.478234091917451226e-03,-9.793538141159523036e+00
0.000000000000000000e+00,-1.478234131504894359e-03,-9.793538141871396263e+00
0.000000000000000000e+00,-1.478234171092336624e-03,-9.793538142583265937e+00
0.000000000000000000e+00,-1.478234210679778672e-03,-9.793538143295137388e+00
0.000000000000000000e+00,-1.478234250267220721e-03,-9.793538144007010615e+00
0.000000000000000000e+00,-1.478234289854661685e-03,-9.793538144718882066e+00
0.000000000000000000e+00,-1.478234329442102866e-03,-9.793538145430755293e+00
0.000000000000000000e+00,-1.478234369029543614e-03,-9.793538146142628520e+00
0.000000000000000000e+00,-1.478234408616983710e-03,-9.793538146854498194e+00
0.000000000000000000e+00,-1.478234448204423807e-03,-9.793538147566373198e+00
0.000000000000000000e+00,-1.478234487791863470e-03,-9.793538148278242872e+00
0.000000000000000000e+00,-1.478234527379302266e-03,-9.793538148990114323e+00
0.000000000000000000e+00,-1.478234566966741062e-03,-9.793538149701989326e+00
0.000000000000000000e+00,-1.478234606554179424e-03,-9.793538150413857224e+00
0.000000000000000000e+00,-1.478234646141617786e-03,-9.793538151125730451e+00
0.000000000000000000e+00,-1.478234685729055281e-03,-9.793538151837603678e+00
0.000000000000000000e+00,-1.478234725316492559e-03,-9.793538152549473352e+00
0.000000000000000000e+00,-1.478234764903929620e-03,-9.793538153261346579e+00
0.000000000000000000e+00,-1.478234804491366031e-03,-9.793538153973219806e+00
0.000000000000000000e+00,-1.478234844078802008e-03,-9.793538154685093033e+00
0.000000000000000000e+00,-1.478234883666237768e-03,-9.793538155396964484e+00
0.000000000000000000e+00,-1.478234923253673311e-03,-9.793538156108837711e+00
0.000000000000000000e+00,-1.478234962841108420e-03,-9.793538156820709162e+00
0.000000000000000000e+00,-1.478235002428543096e-03,-9.793538157532578836e+00
0.000000000000000000e+00,-1.478235042015977338e-03,-9.793538158244452063e+00
0.000000000000000000e+00,-1.478235081603411364e-03,-9.793538158956323514e+00
0.000000000000000000e+00,-1.478235121190844955e-03,-9.793538159668198517e+00
0.000000000000000000e+00,-1.478235160778278330e-03,-9.793538160380068192e+00
0.000000000000000000e+00,-1.478235200365710621e-03,-9.793538161091939642e+00
0.000000000000000000e+00,-1.478235239953143128e-03,-9.793538161803814646e+00
0.000000000000000000e+00,-1.478235279540575852e-03,-9.793538162515684320e+00
0.000000000000000000e+00,-1.478235319128007276e-03,-9.793538163227557547e+00
0.000000000000000000e+00,-1.478235358715438482e-03,-9.793538163939430774e+00
0.000000000000000000e+00,-1.478235398302869472e-03,-9.793538164651304001e+00
0.000000000000000000e+00,-1.478235437890300027e-03,-9.793538165363173675e+00
0.000000000000000000e+00,-1.478235477477730150e-03,-9.793538166075045126e+00
0.000000000000000000e+00,-1.478235517065160272e-03,-9.793538166786918353e+00
0.000000000000000000e+00,-1.478235556652589744e-03,-9.793538167498791580e+00
0.000000000000000000e+00,-1.478235596240018782e-03,-9.793538168210664807e+00
0.000000000000000000e+00,-1.478235635827447603e-03,-9.793538168922534481e+00
0.000000000000000000e+00,-1.478235675414875773e-03,-9.793538169634409485e+00
0.000000000000000000e+00,-1.478235715002303510e-03,-9.793538170346282712e+00
0.000000000000000000e+00,-1.478235754589731464e-03,-9.793538171058154163e+00
0.000000000000000000e+00,-1.478235794177158767e-03,-9.793538171770025613e+00
0.000000000000000000e+00,-1.478235833764585637e-03,-9.793538172481898840e+00
0.000000000000000000e+00,-1.478235873352011856e-03,-9.793538173193770291e+00
0.000000000000000000e+00,-1.478235912939438075e-03,-9.793538173905641742e+00
0.000000000000000000e+00,-1.478235952526863860e-03,-9.793538174617514969e+00
0.000000000000000000e+00,-1.478235992114289212e-03,-9.793538175329386419e+00
0.000000000000000000e+00,-1.478236031701714347e-03,-9.793538176041261423e+00
0.000000000000000000e+00,-1.478236071289138615e-03,-9.793538176753131097e+00
0.000000000000000000e+00,-1.478236110876563316e-03,-9.793538177465006100e+00
0.000000000000000000e+00,-1.478236150463987366e-03,-9.793538178176877551e+00
0.000000000000000000e+00,-1.478236190051410333e-03,-9.793538178888750778e+00
0.000000000000000000e+00,-1.478236229638833950e-03,-9.793538179600622229e+00
0.000000000000000000e+00,-1.478236269226256699e-03,-9.793538180312495456e+00
0.000000000000000000e+00,-1.478236308813679015e-03,-9.793538181024365130e+00
0.000000000000000000e+00,-1.478236348401101114e-03,-9.793538181736240134e+00
0.000000000000000000e+00,-1.478236387988522346e-03,-9.793538182448111584e+00
0.000000000000000000e+00,-1.478236427575944012e-03,-9.793538183159986588e+00
0.000000000000000000e+00,-1.478236467163364810e-03,-9.793538183871858038e+00
0.000000000000000000e+00,-1.478236506750785391e-03,-9.793538184583731265e+00
0.000000000000000000e+00,-1.478236546338205538e-03,-9.793538185295602716e+00
0.000000000000000000e+00,-1.478236585925625686e-03,-9.793538186007475943e+00
0.000000000000000000e+00,-1.478236625513044749e-03,-9.793538186719349170e+00
0.000000000000000000e+00,-1.478236665100464029e-03,-9.793538187431222397e+00
0.000000000000000000e+00,-1.478236704687882659e-03,-9.793538188143093848e+00
0.000000000000000000e+00,-1.478236744275301072e-03,-9.793538188854967075e+00
0.000000000000000000e+00,-1.478236783862718834e-03,-9.793538189566836749e+00
0.000000000000000000e+00,-1.478236823450136597e-03,-9.793538190278711753e+00
0.000000000000000000e+00,-1.478236863037553708e-03,-9.793538190990584980e+00
0.000000000000000000e+00,-1.478236902624970603e-03,-9.793538191702459983e+00
0.000000000000000000e+00,-1.478236942212387064e-03,-9.793538192414329657e+00
0.000000000000000000e+00,-1.478236981799803309e-03,-9.793538193126204661e+00
0.000000000000000000e+00,-1.478237021387218903e-03,-9.793538193838076111e+00
0.000000000000000000e+00,-1.478237060974634280e-03,-9.793538194549949338e+00
0.000000000000000000e+00,-1.478237100562049006e-03,-9.793538195261819013e+00
0.000000000000000000e+00,-1.478237140149463733e-03,-9.793538195973694016e+00
0.000000000000000000e+00,-1.478237179736878026e-03,-9.793538196685565467e+00
0.000000000000000000e+00,-1.478237219324291668e-03,-9.793538197397440470e+00
0.000000000000000000e+00,-1.478237258911705527e-03,-9.793538198109311921e+00
0.000000000000000000e+00,-1.478237298499118736e-03,-9.793538198821185148e+00
0.000000000000000000e+00,-1.478237338086531294e-03,-9.793538199533060151e+00
0.000000000000000000e+00,-1.478237377673943418e-03,-9.793538200244931602e+00
0.000000000000000000e+00,-1.478237417261355543e-03,-9.793538200956804829e+00
0.000000000000000000e+00,-1.478237456848767450e-03,-9.793538201668678056e+00
0.000000000000000000e+00,-1.478237496436178491e-03,-9.793538202380553059e+00
0.000000000000000000e+00,-1.478237536023589314e-03,-9.793538203092420957e+00
0.000000000000000000e+00,-1.478237575610999704e-03,-9.793538203804295961e+00
0.000000000000000000e+00,-1.478237615198409877e-03,-9.793538204516169188e+00
0.000000000000000000e+00,-1.478237654785820050e-03,-9.793538205228042415e+00
0.000000000000000000e+00,-1.478237694373229138e-03,-9.793538205939913865e+00
0.000000000000000000e+00,-1.478237733960638010e-03,-9.793538206651788869e+00
0.000000000000000000e+00,-1.478237773548046665e-03,-9.793538207363663872e+00
0.000000000000000000e+00,-1.478237813135455103e-03,-9.793538208075533547e+00
0.000000000000000000e+00,-1.478237852722862891e-03,-9.793538208787408550e+00
0.000000000000000000e+00,-1.478237892310270678e-03,-9.793538209499280001e+00
0.000000000000000000e+00,-1.478237931897678032e-03,-9.793538210211153228e+00
0.000000000000000000e+00,-1.478237971485084519e-03,-9.793538210923026455e+00
0.000000000000000000e+00,-1.478238011072490789e-03,-9.793538211634901458e+00
0.000000000000000000e+00,-1.478238050659897058e-03,-9.793538212346772909e+00
0.000000000000000000e+00,-1.478238090247302461e-03,-9.793538213058646136e+00
0.000000000000000000e+00,-1.478238129834707646e-03,-9.793538213770521139e+00
0.000000000000000000e+00,-1.478238169422113049e-03,-9.793538214482390813e+00
0.000000000000000000e+00,-1.478238209009517367e-03,-9.793538215194265817e+00
0.000000000000000000e+00,-1.478238248596921902e-03,-9.793538215906139044e+00
0.000000000000000000e+00,-1.478238288184325570e-03,-9.793538216618012271e+00
0.000000000000000000e+00,-1.478238327771728804e-03,-9.793538217329885498e+00
0.000000000000000000e+00,-1.478238367359132038e-03,-9.793538218041756949e+00
0.000000000000000000e+00,-1.478238406946534621e-03,-9.793538218753630176e+00
0.000000000000000000e+00,-1.478238446533936988e-03,-9.793538219465503403e+00
0.000000000000000000e+00,-1.478238486121338704e-03,-9.793538220177378406e+00
0.000000000000000000e+00,-1.478238525708740637e-03,-9.793538220889253409e+00
0.000000000000000000e+00,-1.478238565296141702e-03,-9.793538221601124860e+00
0.000000000000000000e+00,-1.478238604883542768e-03,-9.793538222312998087e+00
0.000000000000000000e+00,-1.478238644470942749e-03,-9.793538223024869538e+00
0.000000000000000000e+00,-1.478238684058343164e-03,-9.793538223736744541e+00
0.000000000000000000e+00,-1.478238723645742929e-03,-9.793538224448619545e+00
0.000000000000000000e+00,-1.478238763233142043e-03,-9.793538225160490995e+00
0.000000000000000000e+00,-1.478238802820541157e-03,-9.793538225872364222e+00
0.000000000000000000e+00,-1.478238842407939620e-03,-9.793538226584239226e+00
0.000000000000000000e+00,-1.478238881995338301e-03,-9.793538227296110676e+00
0.000000000000000000e+00,-1.478238921582736114e-03,-9.793538228007983903e+00
0.000000000000000000e+00,-1.478238961170133276e-03,-9.793538228719857130e+00
0.000000000000000000e+00,-1.478239000757530439e-03,-9.793538229431732134e+00
0.000000000000000000e+00,-1.478239040344927384e-03,-9.793538230143607137e+00
0.000000000000000000e+00,-1.478239079932323896e-03,-9.793538230855478588e+00
0.000000000000000000e+00,-1.478239119519719758e-03,-9.793538231567353591e+00
0.000000000000000000e+00,-1.478239159107115185e-03,-9.793538232279226818e+00
0.000000000000000000e+00,-1.478239198694510613e-03,-9.793538232991096493e+00
0.000000000000000000e+00,-1.478239238281905607e-03,-9.793538233702971496e+00
0.000000000000000000e+00,-1.478239277869300167e-03,-9.793538234414844723e+00
0.000000000000000000e+00,-1.478239317456694077e-03,-9.793538235126717950e+00
0.000000000000000000e+00,-1.478239357044087987e-03,-9.793538235838592954e+00
0.000000000000000000e+00,-1.478239396631481463e-03,-9.793538236550466181e+00
0.000000000000000000e+00,-1.478239436218874506e-03,-9.793538237262341184e+00
0.000000000000000000e+00,-1.478239475806267331e-03,-9.793538237974214411e+00
0.000000000000000000e+00,-1.478239515393659723e-03,-9.793538238686087638e+00
0.000000000000000000e+00,-1.478239554981051465e-03,-9.793538239397962641e+00
0.000000000000000000e+00,-1.478239594568442989e-03,-9.793538240109835868e+00
0.000000000000000000e+00,-1.478239634155834297e-03,-9.793538240821707319e+00
0.000000000000000000e+00,-1.478239673743224954e-03,-9.793538241533582323e+00
0.000000000000000000e+00,-1.478239713330615395e-03,-9.793538242245455550e+00
0.000000000000000000e+00,-1.478239752918004968e-03,-9.793538242957327000e+00
0.000000000000000000e+00,-1.478239792505394758e-03,-9.793538243669202004e+00
0.000000000000000000e+00,-1.478239832092784114e-03,-9.793538244381077007e+00
0.000000000000000000e+00,-1.478239871680173036e-03,-9.793538245092948458e+00
0.000000000000000000e+00,-1.478239911267561959e-03,-9.793538245804823461e+00
0.000000000000000000e+00,-1.478239950854950014e-03,-9.793538246516698464e+00
0.000000000000000000e+00,-1.478239990442337852e-03,-9.793538247228569915e+00
0.000000000000000000e+00,-1.478240030029725257e-03,-9.793538247940443142e+00
0.000000000000000000e+00,-1.478240069617112445e-03,-9.793538248652318146e+00
0.000000000000000000e+00,-1.478240109204499199e-03,-9.793538249364189596e+00
0.000000000000000000e+00,-1.478240148791885302e-03,-9.793538250076064600e+00
0.000000000000000000e+00,-1.478240188379271623e-03,-9.793538250787941379e+00
0.000000000000000000e+00,-1.478240227966657293e-03,-9.793538251499814606e+00
0.000000000000000000e+00,-1.478240267554041878e-03,-9.793538252211686057e+00
0.000000000000000000e+00,-1.478240307141427332e-03,-9.793538252923561060e+00
0.000000000000000000e+00,-1.478240346728811484e-03,-9.793538253635436064e+00
0.000000000000000000e+00,-1.478240386316195852e-03,-9.793538254347307515e+00
0.000000000000000000e+00,-1.478240425903578920e-03,-9.793538255059182518e+00
0.000000000000000000e+00,-1.478240465490962639e-03,-9.793538255771055745e+00
0.000000000000000000e+00,-1.478240505078346140e-03,-9.793538256482928972e+00
0.000000000000000000e+00,-1.478240544665728341e-03,-9.793538257194802199e+00
0.000000000000000000e+00,-1.478240584253110324e-03,-9.793538257906678979e+00
0.000000000000000000e+00,-1.478240623840492525e-03,-9.793538258618552206e+00
0.000000000000000000e+00,-1.478240663427873858e-03,-9.793538259330425433e+00
0.000000000000000000e+00,-1.478240703015255191e-03,-9.793538260042300436e+00
0.000000000000000000e+00,-1.478240742602635873e-03,-9.793538260754175440e+00
0.000000000000000000e+00,-1.478240782190016556e-03,-9.793538261466048667e+00
0.000000000000000000e+00,-1.478240821777396154e-03,-9.793538262177921894e+00
0.000000000000000000e+00,-1.478240861364775970e-03,-9.793538262889795121e+00
0.000000000000000000e+00,-1.478240900952155351e-03,-9.793538263601670124e+00
0.000000000000000000e+00,-1.478240940539534082e-03,-9.793538264313541575e+00
0.000000000000000000e+00,-1.478240980126912596e-03,-9.793538265025418355e+00
0.000000000000000000e+00,-1.478241019714290894e-03,-9.793538265737293358e+00
0.000000000000000000e+00,-1.478241059301668974e-03,-9.793538266449166585e+00
0.000000000000000000e+00,-1.478241098889045970e-03,-9.793538267161038036e+00
0.000000000000000000e+00,-1.478241138476423184e-03,-9.793538267872913039e+00
0.000000000000000000e+00,-1.478241178063799746e-03,-9.793538268584789819e+00
0.000000000000000000e+00,-1.478241217651175875e-03,-9.793538269296661269e+00
0.000000000000000000e+00,-1.478241257238551570e-03,-9.793538270008536273e+00
0.000000000000000000e+00,-1.478241296825927482e-03,-9.793538270720409500e+00
0.000000000000000000e+00,-1.478241336413302744e-03,-9.793538271432284503e+00
0.000000000000000000e+00,-1.478241376000677789e-03,-9.793538272144155954e+00
0.000000000000000000e+00,-1.478241415588051966e-03,-9.793538272856030957e+00
0.000000000000000000e+00,-1.478241455175426143e-03,-9.793538273567907737e+00
0.000000000000000000e+00,-1.478241494762799670e-03,-9.793538274279782740e+00
0.000000000000000000e+00,-1.478241534350172980e-03,-9.793538274991654191e+00
0.000000000000000000e+00,-1.478241573937545857e-03,-9.793538275703529195e+00
0.000000000000000000e+00,-1.478241613524918516e-03,-9.793538276415404198e+00
0.000000000000000000e+00,-1.478241653112290742e-03,-9.793538277127279201e+00
0.000000000000000000e+00,-1.478241692699662751e-03,-9.793538277839150652e+00
0.000000000000000000e+00,-1.478241732287034326e-03,-9.793538278551025655e+00
0.000000000000000000e+00,-1.478241771874405034e-03,-9.793538279262900659e+00
0.000000000000000000e+00,-1.478241811461775742e-03,-9.793538279974775662e+00
0.000000000000000000e+00,-1.478241851049146233e-03,-9.793538280686648889e+00
0.000000000000000000e+00,-1.478241890636516074e-03,-9.793538281398523893e+00
0.000000000000000000e+00,-1.478241930223885914e-03,-9.793538282110398896e+00
0.000000000000000000e+00,-1.478241969811255104e-03,-9.793538282822272123e+00
0.000000000000000000e+00,-1.478242009398623861e-03,-9.793538283534147126e+00
0.000000000000000000e+00,-1.478242048985992400e-03,-9.793538284246020353e+00
0.000000000000000000e+00,-1.478242088573360940e-03,-9.793538284957897133e+00
0.000000000000000000e+00,-1.478242128160728612e-03,-9.793538285669768584e+00
0.000000000000000000e+00,-1.478242167748095633e-03,-9.793538286381643587e+00
0.000000000000000000e+00,-1.478242207335462872e-03,-9.793538287093518591e+00
0.000000000000000000e+00,-1.478242246922829460e-03,-9.793538287805390041e+00
0.000000000000000000e+00,-1.478242286510195614e-03,-9.793538288517266821e+00
0.000000000000000000e+00,-1.478242326097561551e-03,-9.793538289229143601e+00
0.000000000000000000e+00,-1.478242365684927055e-03,-9.793538289941018604e+00
0.000000000000000000e+00,-1.478242405272292125e-03,-9.793538290652893608e+00
0.000000000000000000e+00,-1.478242444859656762e-03,-9.793538291364765058e+00
0.000000000000000000e+00,-1.478242484447020964e-03,-9.793538292076641838e+00
0.000000000000000000e+00,-1.478242524034385167e-03,-9.793538292788516841e+00
0.000000000000000000e+00,-1.478242563621748936e-03,-9.793538293500388292e+00
0.000000000000000000e+00,-1.478242603209112271e-03,-9.793538294212263295e+00
0.000000000000000000e+00,-1.478242642796475173e-03,-9.793538294924138299e+00
0.000000000000000000e+00,-1.478242682383837424e-03,-9.793538295636013302e+00
0.000000000000000000e+00,-1.478242721971199675e-03,-9.793538296347886529e+00
0.000000000000000000e+00,-1.478242761558561710e-03,-9.793538297059761533e+00
0.000000000000000000e+00,-1.478242801145923310e-03,-9.793538297771638312e+00
0.000000000000000000e+00,-1.478242840733284260e-03,-9.793538298483513316e+00
0.000000000000000000e+00,-1.478242880320644777e-03,-9.793538299195384766e+00
0.000000000000000000e+00,-1.478242919908005293e-03,-9.793538299907261546e+00
0.000000000000000000e+00,-1.478242959495365376e-03,-9.793538300619134773e+00
0.000000000000000000e+00,-1.478242999082724591e-03,-9.793538301331009777e+00
0.000000000000000000e+00,-1.478243038670083590e-03,-9.793538302042883004e+00
0.000000000000000000e+00,-1.478243078257442588e-03,-9.793538302754759783e+00
0.000000000000000000e+00,-1.478243117844801370e-03,-9.793538303466634787e+00
0.000000000000000000e+00,-1.478243157432159068e-03,-9.793538304178508014e+00
0.000000000000000000e+00,-1.478243197019516765e-03,-9.793538304890383017e+00
0.000000000000000000e+00,-1.478243236606874029e-03,-9.793538305602258021e+00
0.000000000000000000e+00,-1.478243276194230859e-03,-9.793538306314134800e+00
0.000000000000000000e+00,-1.478243315781587906e-03,-9.793538307026009804e+00
0.000000000000000000e+00,-1.478243355368944086e-03,-9.793538307737883031e+00
0.000000000000000000e+00,-1.478243394956299615e-03,-9.793538308449756258e+00
0.000000000000000000e+00,-1.478243434543655144e-03,-9.793538309161631261e+00
0.000000000000000000e+00,-1.478243474131010456e-03,-9.793538309873504488e+00
0.000000000000000000e+00,-1.478243513718365335e-03,-9.793538310585381268e+00
0.000000000000000000e+00,-1.478243553305719779e-03,-9.793538311297256271e+00
0.000000000000000000e+00,-1.478243592893073574e-03,-9.793538312009131275e+00
0.000000000000000000e+00,-1.478243632480427151e-03,-9.793538312721008054e+00
0.000000000000000000e+00,-1.478243672067780512e-03,-9.793538313432881282e+00
0.000000000000000000e+00,-1.478243711655133439e-03,-9.793538314144756285e+00
0.000000000000000000e+00,-1.478243751242485932e-03,-9.793538314856631288e+00
0.000000000000000000e+00,-1.478243790829837992e-03,-9.793538315568504515e+00
0.000000000000000000e+00,-1.478243830417189401e-03,-9.793538316280379519e+00
0.000000000000000000e+00,-1.478243870004541027e-03,-9.793538316992254522e+00
0.000000000000000000e+00,-1.478243909591892002e-03,-9.793538317704131302e+00
0.000000000000000000e+00,-1.478243949179242761e-03,-9.793538318416006305e+00
0.000000000000000000e+00,-1.478243988766593086e-03,-9.793538319127881309e+00
0.000000000000000000e+00,-1.478244028353942544e-03,-9.793538319839754536e+00
0.000000000000000000e+00,-1.478244067941292435e-03,-9.793538320551629539e+00
0.000000000000000000e+00,-1.478244107528641675e-03,-9.793538321263506319e+00
0.000000000000000000e+00,-1.478244147115990266e-03,-9.793538321975381322e+00
0.000000000000000000e+00,-1.478244186703338422e-03,-9.793538322687256326e+00
0.000000000000000000e+00,-1.478244226290686579e-03,-9.793538323399131329e+00
0.000000000000000000e+00,-1.478244265878034518e-03,-9.793538324111006332e+00
0.000000000000000000e+00,-1.478244305465381591e-03,-9.793538324822881336e+00
0.000000000000000000e+00,-1.478244345052728663e-03,-9.793538325534756339e+00
0.000000000000000000e+00,-1.478244384640075085e-03,-9.793538326246631343e+00
0.000000000000000000e+00,-1.478244424227421507e-03,-9.793538326958506346e+00
0.000000000000000000e+00,-1.478244463814766844e-03,-9.793538327670381349e+00
0.000000000000000000e+00,-1.478244503402112615e-03,-9.793538328382256353e+00
0.000000000000000000e+00,-1.478244542989457302e-03,-9.793538329094133132e+00
0.000000000000000000e+00,-1.478244582576802423e-03,-9.793538329806008136e+00
0.000000000000000000e+00,-1.478244622164146460e-03,-9.793538330517883139e+00
0.000000000000000000e+00,-1.478244661751490496e-03,-9.793538331229756366e+00
0.000000000000000000e+00,-1.478244701338834099e-03,-9.793538331941631370e+00
0.000000000000000000e+00,-1.478244740926177485e-03,-9.793538332653508149e+00
0.000000000000000000e+00,-1.478244780513520221e-03,-9.793538333365384929e+00
0.000000000000000000e+00,-1.478244820100862956e-03,-9.793538334077258156e+00
0.000000000000000000e+00,-1.478244859688204824e-03,-9.793538334789134936e+00
0.000000000000000000e+00,-1.478244899275546259e-03,-9.793538335501009939e+00
0.000000000000000000e+00,-1.478244938862887693e-03,-9.793538336212883166e+00
0.000000000000000000e+00,-1.478244978450228694e-03,-9.793538336924758170e+00
0.000000000000000000e+00,-1.478245018037569261e-03,-9.793538337636634949e+00
0.000000000000000000e+00,-1.478245057624909611e-03,-9.793538338348509953e+00
0.000000000000000000e+00,-1.478245097212249962e-03,-9.793538339060384956e+00
0.000000000000000000e+00,-1.478245136799589011e-03,-9.793538339772259960e+00
0.000000000000000000e+00,-1.478245176386928060e-03,-9.793538340484134963e+00
0.000000000000000000e+00,-1.478245215974266892e-03,-9.793538341196011743e+00
0.000000000000000000e+00,-1.478245255561605074e-03,-9.793538341907886746e+00
0.000000000000000000e+00,-1.478245295148943256e-03,-9.793538342619761750e+00
0.000000000000000000e+00,-1.478245334736280787e-03,-9.793538343331638529e+00
0.000000000000000000e+00,-1.478245374323618102e-03,-9.793538344043513533e+00
0.000000000000000000e+00,-1.478245413910955200e-03,-9.793538344755390312e+00
0.000000000000000000e+00,-1.478245453498291430e-03,-9.793538345467265316e+00
0.000000000000000000e+00,-1.478245493085627877e-03,-9.793538346179138543e+00
0.000000000000000000e+00,-1.478245532672963457e-03,-9.793538346891015323e+00
0.000000000000000000e+00,-1.478245572260298603e-03,-9.793538347602890326e+00
0.000000000000000000e+00,-1.478245611847633749e-03,-9.793538348314767106e+00
0.000000000000000000e+00,-1.478245651434968678e-03,-9.793538349026640333e+00
0.000000000000000000e+00,-1.478245691022302740e-03,-9.793538349738517113e+00
0.000000000000000000e+00,-1.478245730609636802e-03,-9.793538350450392116e+00
0.000000000000000000e+00,-1.478245770196969996e-03,-9.793538351162268896e+00
0.000000000000000000e+00,-1.478245809784303408e-03,-9.793538351874145675e+00
0.000000000000000000e+00,-1.478245849371635952e-03,-9.793538352586020679e+00
0.000000000000000000e+00,-1.478245888958968496e-03,-9.793538353297893906e+00
0.000000000000000000e+00,-1.478245928546300606e-03,-9.793538354009770686e+00
0.000000000000000000e+00,-1.478245968133632283e-03,-9.793538354721645689e+00
0.000000000000000000e+00,-1.478246007720963526e-03,-9.793538355433520692e+00
0.000000000000000000e+00,-1.478246047308294335e-03,-9.793538356145397472e+00
0.000000000000000000e+00,-1.478246086895624927e-03,-9.793538356857274252e+00
0.000000000000000000e+00,-1.478246126482955303e-03,-9.793538357569149255e+00
0.000000000000000000e+00,-1.478246166070284594e-03,-9.793538358281026035e+00
0.000000000000000000e+00,-1.478246205657614536e-03,-9.793538358992901038e+00
0.000000000000000000e+00,-1.478246245244943611e-03,-9.793538359704776042e+00
0.000000000000000000e+00,-1.478246284832272035e-03,-9.793538360416652822e+00
0.000000000000000000e+00,-1.478246324419600676e-03,-9.793538361128527825e+00
0.000000000000000000e+00,-1.478246364006928666e-03,-9.793538361840402828e+00
0.000000000000000000e+00,-1.478246403594256006e-03,-9.793538362552277832e+00
0.000000000000000000e+00,-1.478246443181583563e-03,-9.793538363264154611e+00
0.000000000000000000e+00,-1.478246482768910035e-03,-9.793538363976031391e+00
0.000000000000000000e+00,-1.478246522356236724e-03,-9.793538364687906395e+00
0.000000000000000000e+00,-1.478246561943562763e-03,-9.793538365399781398e+00
0.000000000000000000e+00,-1.478246601530888368e-03,-9.793538366111658178e+00
0.000000000000000000e+00,-1.478246641118213757e-03,-9.793538366823534957e+00
0.000000000000000000e+00,-1.478246680705538711e-03,-9.793538367535409961e+00
0.000000000000000000e+00,-1.478246720292863449e-03,-9.793538368247284964e+00
0.000000000000000000e+00,-1.478246759880187753e-03,-9.793538368959158191e+00
0.000000000000000000e+00,-1.478246799467511623e-03,-9.793538369671036747e+00
0.000000000000000000e+00,-1.478246839054835060e-03,-9.793538370382911751e+00
0.000000000000000000e+00,-1.478246878642158280e-03,-9.793538371094788531e+00
0.000000000000000000e+00,-1.478246918229480632e-03,-9.793538371806663534e+00
0.000000000000000000e+00,-1.478246957816802985e-03,-9.793538372518540314e+00
0.000000000000000000e+00,-1.478246997404125121e-03,-9.793538373230415317e+00
0.000000000000000000e+00,-1.478247036991447039e-03,-9.793538373942292097e+00
0.000000000000000000e+00,-1.478247076578768091e-03,-9.793538374654168877e+00
0.000000000000000000e+00,-1.478247116166088925e-03,-9.793538375366043880e+00
0.000000000000000000e+00,-1.478247155753409543e-03,-9.793538376077917107e+00
0.000000000000000000e+00,-1.478247195340729944e-03,-9.793538376789793887e+00
0.000000000000000000e+00,-1.478247234928049261e-03,-9.793538377501670666e+00
0.000000000000000000e+00,-1.478247274515368795e-03,-9.793538378213545670e+00
0.000000000000000000e+00,-1.478247314102687678e-03,-9.793538378925424226e+00
0.000000000000000000e+00,-1.478247353690006344e-03,-9.793538379637301006e+00
0.000000000000000000e+00,-1.478247393277324793e-03,-9.793538380349176009e+00
0.000000000000000000e+00,-1.478247432864642592e-03,-9.793538381061054565e+00
0.000000000000000000e+00,-1.478247472451960174e-03,-9.793538381772929569e+00
0.000000000000000000e+00,-1.478247512039277539e-03,-9.793538382484804572e+00
0.000000000000000000e+00,-1.478247551626594471e-03,-9.793538383196681352e+00
0.000000000000000000e+00,-1.478247591213910535e-03,-9.793538383908556355e+00
0.000000000000000000e+00,-1.478247630801227033e-03,-9.793538384620433135e+00
0.000000000000000000e+00,-1.478247670388542663e-03,-9.793538385332306362e+00
0.000000000000000000e+00,-1.478247709975857860e-03,-9.793538386044183142e+00
0.000000000000000000e+00,-1.478247749563172840e-03,-9.793538386756059921e+00
0.000000000000000000e+00,-1.478247789150487169e-03,-9.793538387467936701e+00
0.000000000000000000e+00,-1.478247828737801282e-03,-9.793538388179815257e+00
0.000000000000000000e+00,-1.478247868325115177e-03,-9.793538388891690261e+00
0.000000000000000000e+00,-1.478247907912428856e-03,-9.793538389603567040e+00
0.000000000000000000e+00,-1.478247947499741668e-03,-9.793538390315442044e+00
0.000000000000000000e+00,-1.478247987087054696e-03,-9.793538391027317047e+00
0.000000000000000000e+00,-1.478248026674366424e-03,-9.793538391739193827e+00
0.000000000000000000e+00,-1.478248066261678585e-03,-9.793538392451068830e+00
0.000000000000000000e+00,-1.478248105848990529e-03,-9.793538393162945610e+00
0.000000000000000000e+00,-1.478248145436301822e-03,-9.793538393874822390e+00
0.000000000000000000e+00,-1.478248185023612249e-03,-9.793538394586699170e+00
0.000000000000000000e+00,-1.478248224610922892e-03,-9.793538395298577726e+00
0.000000000000000000e+00,-1.478248264198233318e-03,-9.793538396010454505e+00
0.000000000000000000e+00,-1.478248303785542660e-03,-9.793538396722327732e+00
0.000000000000000000e+00,-1.478248343372852002e-03,-9.793538397434206288e+00
0.000000000000000000e+00,-1.478248382960161127e-03,-9.793538398146081292e+00
0.000000000000000000e+00,-1.478248422547469819e-03,-9.793538398857956295e+00
0.000000000000000000e+00,-1.478248462134778294e-03,-9.793538399569833075e+00
0.000000000000000000e+00,-1.478248501722085901e-03,-9.793538400281708078e+00
0.000000000000000000e+00,-1.478248541309393508e-03,-9.793538400993586635e+00
0.000000000000000000e+00,-1.478248580896700465e-03,-9.793538401705463414e+00
0.000000000000000000e+00,-1.478248620484007205e-03,-9.793538402417340194e+00
0.000000000000000000e+00,-1.478248660071313728e-03,-9.793538403129216974e+00
0.000000000000000000e+00,-1.478248699658619818e-03,-9.793538403841091977e+00
0.000000000000000000e+00,-1.478248739245925474e-03,-9.793538404552968757e+00
0.000000000000000000e+00,-1.478248778833230696e-03,-9.793538405264845537e+00
0.000000000000000000e+00,-1.478248818420535484e-03,-9.793538405976720540e+00
0.000000000000000000e+00,-1.478248858007839839e-03,-9.793538406688599096e+00
0.000000000000000000e+00,-1.478248897595144194e-03,-9.793538407400475876e+00
0.000000000000000000e+00,-1.478248937182448115e-03,-9.793538408112350879e+00
0.000000000000000000e+00,-1.478248976769751385e-03,-9.793538408824227659e+00
0.000000000000000000e+00,-1.478249016357054222e-03,-9.793538409536104439e+00
0.000000000000000000e+00,-1.478249055944357276e-03,-9.793538410247981219e+00
0.000000000000000000e+00,-1.478249095531659462e-03,-9.793538410959859775e+00
0.000000000000000000e+00,-1.478249135118960998e-03,-9.793538411671734778e+00
0.000000000000000000e+00,-1.478249174706263184e-03,-9.793538412383611558e+00
0.000000000000000000e+00,-1.478249214293564070e-03,-9.793538413095488337e+00
0.000000000000000000e+00,-1.478249253880864738e-03,-9.793538413807363341e+00
0.000000000000000000e+00,-1.478249293468165190e-03,-9.793538414519240121e+00
0.000000000000000000e+00,-1.478249333055465424e-03,-9.793538415231115124e+00
0.000000000000000000e+00,-1.478249372642764792e-03,-9.793538415942993680e+00
0.000000000000000000e+00,-1.478249412230064159e-03,-9.793538416654870460e+00
0.000000000000000000e+00,-1.478249451817363310e-03,-9.793538417366749016e+00
0.000000000000000000e+00,-1.478249491404662243e-03,-9.793538418078625796e+00
0.000000000000000000e+00,-1.478249530991960093e-03,-9.793538418790499023e+00
0.000000000000000000e+00,-1.478249570579258159e-03,-9.793538419502379355e+00
0.000000000000000000e+00,-1.478249610166555575e-03,-9.793538420214256135e+00
0.000000000000000000e+00,-1.478249649753852774e-03,-9.793538420926132915e+00
0.000000000000000000e+00,-1.478249689341149323e-03,-9.793538421638006142e+00
0.000000000000000000e+00,-1.478249728928445438e-03,-9.793538422349884698e+00
0.000000000000000000e+00,-1.478249768515741119e-03,-9.793538423061759701e+00
0.000000000000000000e+00,-1.478249808103037017e-03,-9.793538423773638257e+00
0.000000000000000000e+00,-1.478249847690332264e-03,-9.793538424485515037e+00
0.000000000000000000e+00,-1.478249887277627295e-03,-9.793538425197391817e+00
0.000000000000000000e+00,-1.478249926864921892e-03,-9.793538425909268597e+00
0.000000000000000000e+00,-1.478249966452216055e-03,-9.793538426621143600e+00
0.000000000000000000e+00,-1.478250006039509784e-03,-9.793538427333022156e+00
0.000000000000000000e+00,-1.478250045626802863e-03,-9.793538428044900712e+00
0.000000000000000000e+00,-1.478250085214095942e-03,-9.793538428756775716e+00
0.000000000000000000e+00,-1.478250124801388588e-03,-9.793538429468652495e+00
0.000000000000000000e+00,-1.478250164388681016e-03,-9.793538430180531051e+00
0.000000000000000000e+00,-1.478250203975972794e-03,-9.793538430892407831e+00
0.000000000000000000e+00,-1.478250243563264139e-03,-9.793538431604284611e+00
0.000000000000000000e+00,-1.478250283150555483e-03,-9.793538432316161391e+00
0.000000000000000000e+00,-1.478250322737846177e-03,-9.793538433028038170e+00
0.000000000000000000e+00,-1.478250362325136437e-03,-9.793538433739916726e+00
0.000000000000000000e+00,-1.478250401912426480e-03,-9.793538434451793506e+00
0.000000000000000000e+00,-1.478250441499716307e-03,-9.793538435163670286e+00
0.000000000000000000e+00,-1.478250481087005699e-03,-9.793538435875547066e+00
0.000000000000000000e+00,-1.478250520674294442e-03,-9.793538436587423845e+00
0.000000000000000000e+00,-1.478250560261583184e-03,-9.793538437299300625e+00
0.000000000000000000e+00,-1.478250599848871059e-03,-9.793538438011177405e+00
0.000000000000000000e+00,-1.478250639436158934e-03,-9.793538438723054185e+00
0.000000000000000000e+00,-1.478250679023446375e-03,-9.793538439434929188e+00
0.000000000000000000e+00,-1.478250718610733599e-03,-9.793538440146807744e+00
0.000000000000000000e+00,-1.478250758198020173e-03,-9.793538440858684524e+00
0.000000000000000000e+00,-1.478250797785306313e-03,-9.793538441570563080e+00
0.000000000000000000e+00,-1.478250837372592236e-03,-9.793538442282439860e+00
0.000000000000000000e+00,-1.478250876959877943e-03,-9.793538442994318416e+00
0.000000000000000000e+00,-1.478250916547162782e-03,-9.793538443706195196e+00
0.000000000000000000e+00,-1.478250956134447838e-03,-9.793538444418070199e+00
0.000000000000000000e+00,-1.478250995721732460e-03,-9.793538445129946979e+00
0.000000000000000000e+00,-1.478251035309016215e-03,-9.793538445841825535e+00
0.000000000000000000e+00,-1.478251074896300187e-03,-9.793538446553704091e+00
0.000000000000000000e+00,-1.478251114483583291e-03,-9.793538447265580871e+00
0.000000000000000000e+00,-1.478251154070866396e-03,-9.793538447977459427e+00
0.000000000000000000e+00,-1.478251193658148849e-03,-9.793538448689334430e+00
0.000000000000000000e+00,-1.478251233245431303e-03,-9.793538449401211210e+00
0.000000000000000000e+00,-1.478251272832712890e-03,-9.793538450113089766e+00
0.000000000000000000e+00,-1.478251312419994476e-03,-9.793538450824968322e+00
0.000000000000000000e+00,-1.478251352007275629e-03,-9.793538451536843326e+00
0.000000000000000000e+00,-1.478251391594556348e-03,-9.793538452248720105e+00
0.000000000000000000e+00,-1.478251431181836634e-03,-9.793538452960596885e+00
0.000000000000000000e+00,-1.478251470769116702e-03,-9.793538453672475441e+00
0.000000000000000000e+00,-1.478251510356395904e-03,-9.793538454384352221e+00
0.000000000000000000e+00,-1.478251549943675539e-03,-9.793538455096230777e+00
0.000000000000000000e+00,-1.478251589530954523e-03,-9.793538455808109333e+00
0.000000000000000000e+00,-1.478251629118232640e-03,-9.793538456519987889e+00
0.000000000000000000e+00,-1.478251668705510757e-03,-9.793538457231862893e+00
0.000000000000000000e+00,-1.478251708292788657e-03,-9.793538457943739672e+00
0.000000000000000000e+00,-1.478251747880066124e-03,-9.793538458655618228e+00
0.000000000000000000e+00,-1.478251787467342940e-03,-9.793538459367493232e+00
0.000000000000000000e+00,-1.478251827054619756e-03,-9.793538460079371788e+00
0.000000000000000000e+00,-1.478251866641895921e-03,-9.793538460791250344e+00
0.000000000000000000e+00,-1.478251906229171870e-03,-9.793538461503128900e+00
0.000000000000000000e+00,-1.478251945816447385e-03,-9.793538462215003904e+00
0.000000000000000000e+00,-1.478251985403722683e-03,-9.793538462926884236e+00
0.000000000000000000e+00,-1.478252024990997114e-03,-9.793538463638761016e+00
0.000000000000000000e+00,-1.478252064578271545e-03,-9.793538464350637796e+00
0.000000000000000000e+00,-1.478252104165545758e-03,-9.793538465062514575e+00
0.000000000000000000e+00,-1.478252143752819539e-03,-9.793538465774393131e+00
0.000000000000000000e+00,-1.478252183340092885e-03,-9.793538466486268135e+00
0.000000000000000000e+00,-1.478252222927365798e-03,-9.793538467198144915e+00
0.000000000000000000e+00,-1.478252262514638277e-03,-9.793538467910025247e+00
0.000000000000000000e+00,-1.478252302101910323e-03,-9.793538468621902027e+00
0.000000000000000000e+00,-1.478252341689181935e-03,-9.793538469333780583e+00
0.000000000000000000e+00,-1.478252381276453763e-03,-9.793538470045659139e+00
0.000000000000000000e+00,-1.478252420863724725e-03,-9.793538470757535919e+00
0.000000000000000000e+00,-1.478252460450995469e-03,-9.793538471469412698e+00
0.000000000000000000e+00,-1.478252500038265346e-03,-9.793538472181291255e+00
0.000000000000000000e+00,-1.478252539625535657e-03,-9.793538472893168034e+00
0.000000000000000000e+00,-1.478252579212805101e-03,-9.793538473605046590e+00
0.000000000000000000e+00,-1.478252618800074327e-03,-9.793538474316923370e+00
0.000000000000000000e+00,-1.478252658387343120e-03,-9.793538475028801926e+00
0.000000000000000000e+00,-1.478252697974611696e-03,-9.793538475740676930e+00
0.000000000000000000e+00,-1.478252737561879622e-03,-9.793538476452557262e+00
0.000000000000000000e+00,-1.478252777149147330e-03,-9.793538477164434042e+00
0.000000000000000000e+00,-1.478252816736414822e-03,-9.793538477876310822e+00
0.000000000000000000e+00,-1.478252856323681880e-03,-9.793538478588191154e+00
0.000000000000000000e+00,-1.478252895910948722e-03,-9.793538479300067934e+00
0.000000000000000000e+00,-1.478252935498214696e-03,-9.793538480011948266e+00
0.000000000000000000e+00,-1.478252975085480670e-03,-9.793538480723825046e+00
0.000000000000000000e+00,-1.478253014672746210e-03,-9.793538481435700049e+00
0.000000000000000000e+00,-1.478253054260010883e-03,-9.793538482147578605e+00
0.000000000000000000e+00,-1.478253093847275990e-03,-9.793538482859457162e+00
0.000000000000000000e+00,-1.478253133434540229e-03,-9.793538483571333941e+00
0.000000000000000000e+00,-1.478253173021804468e-03,-9.793538484283214274e+00
0.000000000000000000e+00,-1.478253212609067623e-03,-9.793538484995091054e+00
0.000000000000000000e+00,-1.478253252196330995e-03,-9.793538485706971386e+00
0.000000000000000000e+00,-1.478253291783593933e-03,-9.793538486418848166e+00
0.000000000000000000e+00,-1.478253331370856655e-03,-9.793538487130724945e+00
0.000000000000000000e+00,-1.478253370958118726e-03,-9.793538487842603502e+00
0.000000000000000000e+00,-1.478253410545380146e-03,-9.793538488554482058e+00
0.000000000000000000e+00,-1.478253450132641783e-03,-9.793538489266357061e+00
0.000000000000000000e+00,-1.478253489719902770e-03,-9.793538489978237394e+00
0.000000000000000000e+00,-1.478253529307163323e-03,-9.793538490690114173e+00
0.000000000000000000e+00,-1.478253568894423442e-03,-9.793538491401994506e+00
0.000000000000000000e+00,-1.478253608481683561e-03,-9.793538492113869509e+00
0.000000000000000000e+00,-1.478253648068943030e-03,-9.793538492825748065e+00
0.000000000000000000e+00,-1.478253687656202282e-03,-9.793538493537626621e+00
0.000000000000000000e+00,-1.478253727243460883e-03,-9.793538494249505177e+00
0.000000000000000000e+00,-1.478253766830719702e-03,-9.793538494961383734e+00
0.000000000000000000e+00,-1.478253806417977653e-03,-9.793538495673262290e+00
0.000000000000000000e+00,-1.478253846005235170e-03,-9.793538496385137293e+00
0.000000000000000000e+00,-1.478253885592492687e-03,-9.793538497097017625e+00
0.000000000000000000e+00,-1.478253925179749770e-03,-9.793538497808892629e+00
0.000000000000000000e+00,-1.478253964767006204e-03,-9.793538498520772961e+00
0.000000000000000000e+00,-1.478254004354261986e-03,-9.793538499232649741e+00
0.000000000000000000e+00,-1.478254043941517985e-03,-9.793538499944528297e+00
0.000000000000000000e+00,-1.478254083528773334e-03,-9.793538500656408630e+00
0.000000000000000000e+00,-1.478254123116028249e-03,-9.793538501368285409e+00
0.000000000000000000e+00,-1.478254162703283164e-03,-9.793538502080165742e+00
0.000000000000000000e+00,-1.478254202290537646e-03,-9.793538502792042522e+00
0.000000000000000000e+00,-1.478254241877791477e-03,-9.793538503503921078e+00
0.000000000000000000e+00,-1.478254281465044874e-03,-9.793538504215797857e+00
0.000000000000000000e+00,-1.478254321052298271e-03,-9.793538504927674637e+00
0.000000000000000000e+00,-1.478254360639551018e-03,-9.793538505639554970e+00
0.000000000000000000e+00,-1.478254400226803548e-03,-9.793538506351433526e+00
0.000000000000000000e+00,-1.478254439814055644e-03,-9.793538507063312082e+00
0.000000000000000000e+00,-1.478254479401307307e-03,-9.793538507775190638e+00
0.000000000000000000e+00,-1.478254518988558752e-03,-9.793538508487070970e+00
0.000000000000000000e+00,-1.478254558575809764e-03,-9.793538509198945974e+00
0.000000000000000000e+00,-1.478254598163060343e-03,-9.793538509910824530e+00
0.000000000000000000e+00,-1.478254637750310487e-03,-9.793538510622703086e+00
0.000000000000000000e+00,-1.478254677337560632e-03,-9.793538511334581642e+00
0.000000000000000000e+00,-1.478254716924809909e-03,-9.793538512046458422e+00
0.000000000000000000e+00,-1.478254756512058970e-03,-9.793538512758336978e+00
0.000000000000000000e+00,-1.478254796099308030e-03,-9.793538513470217310e+00
0.000000000000000000e+00,-1.478254835686556006e-03,-9.793538514182094090e+00
0.000000000000000000e+00,-1.478254875273803982e-03,-9.793538514893972646e+00
0.000000000000000000e+00,-1.478254914861051959e-03,-9.793538515605851202e+00
0.000000000000000000e+00,-1.478254954448298851e-03,-9.793538516317731535e+00
0.000000000000000000e+00,-1.478254994035545960e-03,-9.793538517029608315e+00
0.000000000000000000e+00,-1.478255033622792418e-03,-9.793538517741488647e+00
0.000000000000000000e+00,-1.478255073210038443e-03,-9.793538518453367203e+00
0.000000000000000000e+00,-1.478255112797284034e-03,-9.793538519165242207e+00
0.000000000000000000e+00,-1.478255152384529841e-03,-9.793538519877122539e+00
0.000000000000000000e+00,-1.478255191971774999e-03,-9.793538520588999319e+00
0.000000000000000000e+00,-1.478255231559019289e-03,-9.793538521300879651e+00
0.000000000000000000e+00,-1.478255271146263579e-03,-9.793538522012758207e+00
0.000000000000000000e+00,-1.478255310733507435e-03,-9.793538522724636763e+00
0.000000000000000000e+00,-1.478255350320751508e-03,-9.793538523436515320e+00
0.000000000000000000e+00,-1.478255389907994497e-03,-9.793538524148393876e+00
0.000000000000000000e+00,-1.478255429495237269e-03,-9.793538524860272432e+00
0.000000000000000000e+00,-1.478255469082479607e-03,-9.793538525572152764e+00
0.000000000000000000e+00,-1.478255508669721512e-03,-9.793538526284031320e+00
0.000000000000000000e+00,-1.478255548256963200e-03,-9.793538526995909876e+00
0.000000000000000000e+00,-1.478255587844204888e-03,-9.793538527707784880e+00
0.000000000000000000e+00,-1.478255627431445708e-03,-9.793538528419665212e+00
0.000000000000000000e+00,-1.478255667018685878e-03,-9.793538529131541992e+00
0.000000000000000000e+00,-1.478255706605926265e-03,-9.793538529843422324e+00
0.000000000000000000e+00,-1.478255746193166001e-03,-9.793538530555300881e+00
0.000000000000000000e+00,-1.478255785780405738e-03,-9.793538531267181213e+00
0.000000000000000000e+00,-1.478255825367644823e-03,-9.793538531979059769e+00
0.000000000000000000e+00,-1.478255864954883259e-03,-9.793538532690938325e+00
0.000000000000000000e+00,-1.478255904542121911e-03,-9.793538533402815105e+00
0.000000000000000000e+00,-1.478255944129359479e-03,-9.793538534114693661e+00
0.000000000000000000e+00,-1.478255983716597046e-03,-9.793538534826572217e+00
0.000000000000000000e+00,-1.478256023303834397e-03,-9.793538535538452550e+00
0.000000000000000000e+00,-1.478256062891071098e-03,-9.793538536250331106e+00
0.000000000000000000e+00,-1.478256102478307799e-03,-9.793538536962209662e+00
0.000000000000000000e+00,-1.478256142065543849e-03,-9.793538537674088218e+00
0.000000000000000000e+00,-1.478256181652779682e-03,-9.793538538385968550e+00
0.000000000000000000e+00,-1.478256221240015081e-03,-9.793538539097848883e+00
0.000000000000000000e+00,-1.478256260827250047e-03,-9.793538539809727439e+00
0.000000000000000000e+00,-1.478256300414484362e-03,-9.793538540521605995e+00
0.000000000000000000e+00,-1.478256340001718678e-03,-9.793538541233482775e+00
0.000000000000000000e+00,-1.478256379588952559e-03,-9.793538541945361331e+00
0.000000000000000000e+00,-1.478256419176186224e-03,-9.793538542657239887e+00
0.000000000000000000e+00,-1.478256458763419455e-03,-9.793538543369120219e+00
0.000000000000000000e+00,-1.478256498350651819e-03,-9.793538544080996999e+00
0.000000000000000000e+00,-1.478256537937884616e-03,-9.793538544792877332e+00
0.000000000000000000e+00,-1.478256577525116329e-03,-9.793538545504755888e+00
0.000000000000000000e+00,-1.478256617112348043e-03,-9.793538546216636220e+00
0.000000000000000000e+00,-1.478256656699579322e-03,-9.793538546928516553e+00
0.000000000000000000e+00,-1.478256696286810168e-03,-9.793538547640393332e+00
0.000000000000000000e+00,-1.478256735874040580e-03,-9.793538548352273665e+00
0.000000000000000000e+00,-1.478256775461270992e-03,-9.793538549064152221e+00
0.000000000000000000e+00,-1.478256815048500537e-03,-9.793538549776030777e+00
0.000000000000000000e+00,-1.478256854635730082e-03,-9.793538550487907557e+00
0.000000000000000000e+00,-1.478256894222959193e-03,-9.793538551199787889e+00
0.000000000000000000e+00,-1.478256933810188087e-03,-9.793538551911666445e+00
0.000000000000000000e+00,-1.478256973397416114e-03,-9.793538552623546778e+00
0.000000000000000000e+00,-1.478257012984643924e-03,-9.793538553335427110e+00
0.000000000000000000e+00,-1.478257052571871301e-03,-9.793538554047305666e+00
0.000000000000000000e+00,-1.478257092159098677e-03,-9.793538554759185999e+00
0.000000000000000000e+00,-1.478257131746325403e-03,-9.793538555471062779e+00
0.000000000000000000e+00,-1.478257171333551912e-03,-9.793538556182943111e+00
0.000000000000000000e+00,-1.478257210920778204e-03,-9.793538556894821667e+00
0.000000000000000000e+00,-1.478257250508003846e-03,-9.793538557606700223e+00
0.000000000000000000e+00,-1.478257290095229270e-03,-9.793538558318580556e+00
0.000000000000000000e+00,-1.478257329682454045e-03,-9.793538559030457336e+00
0.000000000000000000e+00,-1.478257369269678602e-03,-9.793538559742339444e+00
0.000000000000000000e+00,-1.478257408856902509e-03,-9.793538560454218000e+00
0.000000000000000000e+00,-1.478257448444126633e-03,-9.793538561166096557e+00
0.000000000000000000e+00,-1.478257488031350323e-03,-9.793538561877976889e+00
0.000000000000000000e+00,-1.478257527618573146e-03,-9.793538562589857221e+00
0.000000000000000000e+00,-1.478257567205795969e-03,-9.793538563301735778e+00
0.000000000000000000e+00,-1.478257606793018358e-03,-9.793538564013612557e+00
0.000000000000000000e+00,-1.478257646380240313e-03,-9.793538564725491113e+00
0.000000000000000000e+00,-1.478257685967461835e-03,-9.793538565437373222e+00
0.000000000000000000e+00,-1.478257725554682923e-03,-9.793538566149250002e+00
0.000000000000000000e+00,-1.478257765141903794e-03,-9.793538566861130334e+00
0.000000000000000000e+00,-1.478257804729124665e-03,-9.793538567573008891e+00
0.000000000000000000e+00,-1.478257844316344886e-03,-9.793538568284889223e+00
0.000000000000000000e+00,-1.478257883903564239e-03,-9.793538568996769555e+00
0.000000000000000000e+00,-1.478257923490783592e-03,-9.793538569708648112e+00
0.000000000000000000e+00,-1.478257963078002729e-03,-9.793538570420528444e+00
0.000000000000000000e+00,-1.478258002665220998e-03,-9.793538571132408777e+00
0.000000000000000000e+00,-1.478258042252439701e-03,-9.793538571844285556e+00
0.000000000000000000e+00,-1.478258081839657536e-03,-9.793538572556165889e+00
0.000000000000000000e+00,-1.478258121426874721e-03,-9.793538573268042668e+00
0.000000000000000000e+00,-1.478258161014091689e-03,-9.793538573979924777e+00
0.000000000000000000e+00,-1.478258200601308657e-03,-9.793538574691805110e+00
0.000000000000000000e+00,-1.478258240188524975e-03,-9.793538575403681889e+00
0.000000000000000000e+00,-1.478258279775740858e-03,-9.793538576115563998e+00
0.000000000000000000e+00,-1.478258319362956742e-03,-9.793538576827444331e+00
0.000000000000000000e+00,-1.478258358950172192e-03,-9.793538577539322887e+00
0.000000000000000000e+00,-1.478258398537386992e-03,-9.793538578251203219e+00
0.000000000000000000e+00,-1.478258438124601792e-03,-9.793538578963083552e+00
0.000000000000000000e+00,-1.478258477711815941e-03,-9.793538579674960332e+00
0.000000000000000000e+00,-1.478258517299029439e-03,-9.793538580386840664e+00
0.000000000000000000e+00,-1.478258556886243155e-03,-9.793538581098720996e+00
0.000000000000000000e+00,-1.478258596473455786e-03,-9.793538581810597776e+00
0.000000000000000000e+00,-1.478258636060668634e-03,-9.793538582522478109e+00
0.000000000000000000e+00,-1.478258675647881049e-03,-9.793538583234358441e+00
0.000000000000000000e+00,-1.478258715235093029e-03,-9.793538583946236997e+00
0.000000000000000000e+00,-1.478258754822304359e-03,-9.793538584658119106e+00
0.000000000000000000e+00,-1.478258794409515690e-03,-9.793538585369997662e+00
0.000000000000000000e+00,-1.478258833996726369e-03,-9.793538586081877995e+00
0.000000000000000000e+00,-1.478258873583936832e-03,-9.793538586793758327e+00
0.000000000000000000e+00,-1.478258913171146861e-03,-9.793538587505636883e+00
0.000000000000000000e+00,-1.478258952758356457e-03,-9.793538588217515439e+00
0.000000000000000000e+00,-1.478258992345565835e-03,-9.793538588929395772e+00
0.000000000000000000e+00,-1.478259031932774997e-03,-9.793538589641277881e+00
0.000000000000000000e+00,-1.478259071519983509e-03,-9.793538590353156437e+00
0.000000000000000000e+00,-1.478259111107191586e-03,-9.793538591065036769e+00
0.000000000000000000e+00,-1.478259150694399664e-03,-9.793538591776917102e+00
0.000000000000000000e+00,-1.478259190281607091e-03,-9.793538592488793881e+00
0.000000000000000000e+00,-1.478259229868814084e-03,-9.793538593200674214e+00
0.000000000000000000e+00,-1.478259269456020644e-03,-9.793538593912556323e+00
0.000000000000000000e+00,-1.478259309043227204e-03,-9.793538594624431326e+00
0.000000000000000000e+00,-1.478259348630433113e-03,-9.793538595336313435e+00
0.000000000000000000e+00,-1.478259388217639022e-03,-9.793538596048193767e+00
0.000000000000000000e+00,-1.478259427804844064e-03,-9.793538596760072323e+00
0.000000000000000000e+00,-1.478259467392049106e-03,-9.793538597471952656e+00
0.000000000000000000e+00,-1.478259506979253280e-03,-9.793538598183832988e+00
0.000000000000000000e+00,-1.478259546566457238e-03,-9.793538598895715097e+00
0.000000000000000000e+00,-1.478259586153660978e-03,-9.793538599607593653e+00
0.000000000000000000e+00,-1.478259625740864719e-03,-9.793538600319473986e+00
0.000000000000000000e+00,-1.478259665328067593e-03,-9.793538601031354318e+00
0.000000000000000000e+00,-1.478259704915270249e-03,-9.793538601743231098e+00
0.000000000000000000e+00,-1.478259744502472472e-03,-9.793538602455111430e+00
0.000000000000000000e+00,-1.478259784089674261e-03,-9.793538603166991763e+00
0.000000000000000000e+00,-1.478259823676876051e-03,-9.793538603878872095e+00
0.000000000000000000e+00,-1.478259863264076972e-03,-9.793538604590750651e+00
0.000000000000000000e+00,-1.478259902851278111e-03,-9.793538605302632760e+00
0.000000000000000000e+00,-1.478259942438478166e-03,-9.793538606014513093e+00
0.000000000000000000e+00,-1.478259982025678220e-03,-9.793538606726393425e+00
0.000000000000000000e+00,-1.478260021612878058e-03,-9.793538607438271981e+00
0.000000000000000000e+00,-1.478260061200077028e-03,-9.793538608150154090e+00
0.000000000000000000e+00,-1.478260100787275998e-03,-9.793538608862034422e+00
0.000000000000000000e+00,-1.478260140374474535e-03,-9.793538609573911202e+00
0.000000000000000000e+00,-1.478260179961672855e-03,-9.793538610285793311e+00
0.000000000000000000e+00,-1.478260219548870958e-03,-9.793538610997673644e+00
0.000000000000000000e+00,-1.478260259136067976e-03,-9.793538611709553976e+00
0.000000000000000000e+00,-1.478260298723264995e-03,-9.793538612421432532e+00
0.000000000000000000e+00,-1.478260338310462014e-03,-9.793538613133314641e+00
0.000000000000000000e+00,-1.478260377897657948e-03,-9.793538613845194973e+00
0.000000000000000000e+00,-1.478260417484854100e-03,-9.793538614557075306e+00
0.000000000000000000e+00,-1.478260457072049817e-03,-9.793538615268952086e+00
0.000000000000000000e+00,-1.478260496659244668e-03,-9.793538615980834194e+00
0.000000000000000000e+00,-1.478260536246439952e-03,-9.793538616692714527e+00
0.000000000000000000e+00,-1.478260575833634152e-03,-9.793538617404594859e+00
0.000000000000000000e+00,-1.478260615420828351e-03,-9.793538618116471639e+00
0.000000000000000000e+00,-1.478260655008021684e-03,-9.793538618828353748e+00
0.000000000000000000e+00,-1.478260694595215450e-03,-9.793538619540234080e+00
0.000000000000000000e+00,-1.478260734182408349e-03,-9.793538620252116189e+00
0.000000000000000000e+00,-1.478260773769600814e-03,-9.793538620963994745e+00
0.000000000000000000e+00,-1.478260813356793062e-03,-9.793538621675875078e+00
0.000000000000000000e+00,-1.478260852943984877e-03,-9.793538622387757187e+00
0.000000000000000000e+00,-1.478260892531176041e-03,-9.793538623099637519e+00
0.000000000000000000e+00,-1.478260932118367638e-03,-9.793538623811519628e+00
0.000000000000000000e+00,-1.478260971705557935e-03,-9.793538624523398184e+00
0.000000000000000000e+00,-1.478261011292748449e-03,-9.793538625235276740e+00
0.000000000000000000e+00,-1.478261050879938528e-03,-9.793538625947158849e+00
0.000000000000000000e+00,-1.478261090467128391e-03,-9.793538626659039181e+00
0.000000000000000000e+00,-1.478261130054317387e-03,-9.793538627370919514e+00
0.000000000000000000e+00,-1.478261169641506166e-03,-9.793538628082799846e+00
0.000000000000000000e+00,-1.478261209228694945e-03,-9.793538628794680179e+00
0.000000000000000000e+00,-1.478261248815883073e-03,-9.793538629506562287e+00
0.000000000000000000e+00,-1.478261288403070767e-03,-9.793538630218442620e+00
0.000000000000000000e+00,-1.478261327990258028e-03,-9.793538630930319400e+00
0.000000000000000000e+00,-1.478261367577444856e-03,-9.793538631642199732e+00
0.000000000000000000e+00,-1.478261407164631900e-03,-9.793538632354080065e+00
0.000000000000000000e+00,-1.478261446751817859e-03,-9.793538633065960397e+00
0.000000000000000000e+00,-1.478261486339004036e-03,-9.793538633777842506e+00
0.000000000000000000e+00,-1.478261525926189562e-03,-9.793538634489722838e+00
0.000000000000000000e+00,-1.478261565513374438e-03,-9.793538635201601394e+00
0.000000000000000000e+00,-1.478261605100559531e-03,-9.793538635913483503e+00
0.000000000000000000e+00,-1.478261644687743973e-03,-9.793538636625363836e+00
0.000000000000000000e+00,-1.478261684274927764e-03,-9.793538637337245945e+00
0.000000000000000000e+00,-1.478261723862111555e-03,-9.793538638049128053e+00
0.000000000000000000e+00,-1.478261763449294913e-03,-9.793538638761006609e+00
0.000000000000000000e+00,-1.478261803036477621e-03,-9.793538639472888718e+00
0.000000000000000000e+00,-1.478261842623660328e-03,-9.793538640184767274e+00
0.000000000000000000e+00,-1.478261882210842818e-03,-9.793538640896649383e+00
0.000000000000000000e+00,-1.478261921798024441e-03,-9.793538641608529716e+00
0.000000000000000000e+00,-1.478261961385205631e-03,-9.793538642320410048e+00
0.000000000000000000e+00,-1.478262000972386603e-03,-9.793538643032290381e+00
0.000000000000000000e+00,-1.478262040559567576e-03,-9.793538643744170713e+00
0.000000000000000000e+00,-1.478262080146747898e-03,-9.793538644456052822e+00
0.000000000000000000e+00,-1.478262119733927786e-03,-9.793538645167933154e+00
0.000000000000000000e+00,-1.478262159321107241e-03,-9.793538645879815263e+00
0.000000000000000000e+00,-1.478262198908286262e-03,-9.793538646591695596e+00
0.000000000000000000e+00,-1.478262238495465283e-03,-9.793538647303570599e+00
0.000000000000000000e+00,-1.478262278082643870e-03,-9.793538648015452708e+00
0.000000000000000000e+00,-1.478262317669822024e-03,-9.793538648727333040e+00
0.000000000000000000e+00,-1.478262357256999743e-03,-9.793538649439215149e+00
0.000000000000000000e+00,-1.478262396844176813e-03,-9.793538650151097258e+00
0.000000000000000000e+00,-1.478262436431353882e-03,-9.793538650862977590e+00
0.000000000000000000e+00,-1.478262476018530518e-03,-9.793538651574859699e+00
0.000000000000000000e+00,-1.478262515605707154e-03,-9.793538652286738255e+00
0.000000000000000000e+00,-1.478262555192882272e-03,-9.793538652998618588e+00
0.000000000000000000e+00,-1.478262594780058040e-03,-9.793538653710502473e+00
0.000000000000000000e+00,-1.478262634367233591e-03,-9.793538654422382805e+00
0.000000000000000000e+00,-1.478262673954408059e-03,-9.793538655134261361e+00
0.000000000000000000e+00,-1.478262713541582309e-03,-9.793538655846143470e+00
0.000000000000000000e+00,-1.478262753128756560e-03,-9.793538656558025579e+00
0.000000000000000000e+00,-1.478262792715929943e-03,-9.793538657269905912e+00
0.000000000000000000e+00,-1.478262832303103326e-03,-9.793538657981786244e+00
0.000000000000000000e+00,-1.478262871890276275e-03,-9.793538658693666576e+00
0.000000000000000000e+00,-1.478262911477448791e-03,-9.793538659405548685e+00
0.000000000000000000e+00,-1.478262951064620656e-03,-9.793538660117430794e+00
0.000000000000000000e+00,-1.478262990651792522e-03,-9.793538660829311127e+00
0.000000000000000000e+00,-1.478263030238963736e-03,-9.793538661541191459e+00
0.000000000000000000e+00,-1.478263069826134951e-03,-9.793538662253071791e+00
0.000000000000000000e+00,-1.478263109413305732e-03,-9.793538662964953900e+00
0.000000000000000000e+00,-1.478263149000475646e-03,-9.793538663676834233e+00
0.000000000000000000e+00,-1.478263188587645776e-03,-9.793538664388714565e+00
0.000000000000000000e+00,-1.478263228174815256e-03,-9.793538665100594898e+00
0.000000000000000000e+00,-1.478263267761984519e-03,-9.793538665812477007e+00
0.000000000000000000e+00,-1.478263307349153349e-03,-9.793538666524359115e+00
0.000000000000000000e+00,-1.478263346936321745e-03,-9.793538667236239448e+00
0.000000000000000000e+00,-1.478263386523489707e-03,-9.793538667948121557e+00
0.000000000000000000e+00,-1.478263426110657235e-03,-9.793538668660003665e+00
0.000000000000000000e+00,-1.478263465697824547e-03,-9.793538669371885774e+00
0.000000000000000000e+00,-1.478263505284991425e-03,-9.793538670083764330e+00
0.000000000000000000e+00,-1.478263544872158303e-03,-9.793538670795646439e+00
0.000000000000000000e+00,-1.478263584459324530e-03,-9.793538671507526772e+00
0.000000000000000000e+00,-1.478263624046490324e-03,-9.793538672219407104e+00
0.000000000000000000e+00,-1.478263663633655901e-03,-9.793538672931287437e+00
0.000000000000000000e+00,-1.478263703220821044e-03,-9.793538673643171322e+00
0.000000000000000000e+00,-1.478263742807985753e-03,-9.793538674355051654e+00
0.000000000000000000e+00,-1.478263782395150029e-03,-9.793538675066931987e+00
0.000000000000000000e+00,-1.478263821982313871e-03,-9.793538675778814095e+00
0.000000000000000000e+00,-1.478263861569477497e-03,-9.793538676490696204e+00
0.000000000000000000e+00,-1.478263901156640255e-03,-9.793538677202578313e+00
0.000000000000000000e+00,-1.478263940743803446e-03,-9.793538677914456869e+00
0.000000000000000000e+00,-1.478263980330965770e-03,-9.793538678626338978e+00
0.000000000000000000e+00,-1.478264019918127878e-03,-9.793538679338221087e+00
0.000000000000000000e+00,-1.478264059505289552e-03,-9.793538680050101419e+00
0.000000000000000000e+00,-1.478264099092451225e-03,-9.793538680761983528e+00
0.000000000000000000e+00,-1.478264138679612032e-03,-9.793538681473865637e+00
0.000000000000000000e+00,-1.478264178266772404e-03,-9.793538682185747746e+00
0.000000000000000000e+00,-1.478264217853932777e-03,-9.793538682897624525e+00
0.000000000000000000e+00,-1.478264257441092716e-03,-9.793538683609506634e+00
0.000000000000000000e+00,-1.478264297028252221e-03,-9.793538684321388743e+00
0.000000000000000000e+00,-1.478264336615411293e-03,-9.793538685033269076e+00
0.000000000000000000e+00,-1.478264376202570365e-03,-9.793538685745149408e+00
0.000000000000000000e+00,-1.478264415789728352e-03,-9.793538686457031517e+00
0.000000000000000000e+00,-1.478264455376886340e-03,-9.793538687168913626e+00
0.000000000000000000e+00,-1.478264494964044110e-03,-9.793538687880795734e+00
0.000000000000000000e+00,-1.478264534551201230e-03,-9.793538688592676067e+00
0.000000000000000000e+00,-1.478264574138357917e-03,-9.793538689304558176e+00
0.000000000000000000e+00,-1.478264613725515037e-03,-9.793538690016440285e+00
0.000000000000000000e+00,-1.478264653312671073e-03,-9.793538690728322393e+00
0.000000000000000000e+00,-1.478264692899826892e-03,-9.793538691440202726e+00
0.000000000000000000e+00,-1.478264732486982060e-03,-9.793538692152084835e+00
0.000000000000000000e+00,-1.478264772074137446e-03,-9.793538692863965167e+00
0.000000000000000000e+00,-1.478264811661291747e-03,-9.793538693575847276e+00
0.000000000000000000e+00,-1.478264851248446265e-03,-9.793538694287729385e+00
0.000000000000000000e+00,-1.478264890835600132e-03,-9.793538694999609717e+00
0.000000000000000000e+00,-1.478264930422753566e-03,-9.793538695711491826e+00
0.000000000000000000e+00,-1.478264970009906783e-03,-9.793538696423373935e+00
0.000000000000000000e+00,-1.478265009597059566e-03,-9.793538697135257820e+00
0.000000000000000000e+00,-1.478265049184211916e-03,-9.793538697847139929e+00
0.000000000000000000e+00,-1.478265088771364049e-03,-9.793538698559022038e+00
0.000000000000000000e+00,-1.478265128358515748e-03,-9.793538699270902370e+00
0.000000000000000000e+00,-1.478265167945666796e-03,-9.793538699982782703e+00
0.000000000000000000e+00,-1.478265207532818062e-03,-9.793538700694664811e+00
0.000000000000000000e+00,-1.478265247119968460e-03,-9.793538701406546920e+00
0.000000000000000000e+00,-1.478265286707118424e-03,-9.793538702118429029e+00
0.000000000000000000e+00,-1.478265326294268605e-03,-9.793538702830311138e+00
0.000000000000000000e+00,-1.478265365881417919e-03,-9.793538703542191470e+00
0.000000000000000000e+00,-1.478265405468567233e-03,-9.793538704254073579e+00
0.000000000000000000e+00,-1.478265445055715896e-03,-9.793538704965955688e+00
0.000000000000000000e+00,-1.478265484642863909e-03,-9.793538705677837797e+00
0.000000000000000000e+00,-1.478265524230012139e-03,-9.793538706389719906e+00
0.000000000000000000e+00,-1.478265563817159501e-03,-9.793538707101602014e+00
0.000000000000000000e+00,-1.478265603404306863e-03,-9.793538707813480571e+00
0.000000000000000000e+00,-1.478265642991453792e-03,-9.793538708525362679e+00
0.000000000000000000e+00,-1.478265682578600287e-03,-9.793538709237244788e+00
0.000000000000000000e+00,-1.478265722165746348e-03,-9.793538709949126897e+00
0.000000000000000000e+00,-1.478265761752892192e-03,-9.793538710661009006e+00
0.000000000000000000e+00,-1.478265801340037386e-03,-9.793538711372891115e+00
0.000000000000000000e+00,-1.478265840927182363e-03,-9.793538712084773223e+00
0.000000000000000000e+00,-1.478265880514327123e-03,-9.793538712796655332e+00
0.000000000000000000e+00,-1.478265920101471450e-03,-9.793538713508537441e+00
0.000000000000000000e+00,-1.478265959688615126e-03,-9.793538714220417774e+00
0.000000000000000000e+00,-1.478265999275758802e-03,-9.793538714932299882e+00
0.000000000000000000e+00,-1.478266038862901827e-03,-9.793538715644181991e+00
0.000000000000000000e+00,-1.478266078450044636e-03,-9.793538716356065876e+00
0.000000000000000000e+00,-1.478266118037187011e-03,-9.793538717067947985e+00
0.000000000000000000e+00,-1.478266157624329169e-03,-9.793538717779828318e+00
0.000000000000000000e+00,-1.478266197211470893e-03,-9.793538718491710426e+00
0.000000000000000000e+00,-1.478266236798612184e-03,-9.793538719203592535e+00
0.000000000000000000e+00,-1.478266276385752608e-03,-9.793538719915474644e+00
0.000000000000000000e+00,-1.478266315972893248e-03,-9.793538720627356753e+00
0.000000000000000000e+00,-1.478266355560033454e-03,-9.793538721339238862e+00
0.000000000000000000e+00,-1.478266395147173227e-03,-9.793538722051120970e+00
0.000000000000000000e+00,-1.478266434734312566e-03,-9.793538722763001303e+00
0.000000000000000000e+00,-1.478266474321451905e-03,-9.793538723474883412e+00
0.000000000000000000e+00,-1.478266513908590160e-03,-9.793538724186765521e+00
0.000000000000000000e+00,-1.478266553495728849e-03,-9.793538724898647629e+00
0.000000000000000000e+00,-1.478266593082866670e-03,-9.793538725610529738e+00
0.000000000000000000e+00,-1.478266632670004275e-03,-9.793538726322411847e+00
0.000000000000000000e+00,-1.478266672257141662e-03,-9.793538727034295732e+00
0.000000000000000000e+00,-1.478266711844278183e-03,-9.793538727746177841e+00
0.000000000000000000e+00,-1.478266751431414703e-03,-9.793538728458059950e+00
0.000000000000000000e+00,-1.478266791018550573e-03,-9.793538729169942059e+00
0.000000000000000000e+00,-1.478266830605686442e-03,-9.793538729881824167e+00
0.000000000000000000e+00,-1.478266870192821662e-03,-9.793538730593704500e+00
0.000000000000000000e+00,-1.478266909779956881e-03,-9.793538731305586609e+00
0.000000000000000000e+00,-1.478266949367091233e-03,-9.793538732017468718e+00
0.000000000000000000e+00,-1.478266988954225584e-03,-9.793538732729350826e+00
0.000000000000000000e+00,-1.478267028541359503e-03,-9.793538733441232935e+00
0.000000000000000000e+00,-1.478267068128492987e-03,-9.793538734153115044e+00
0.000000000000000000e+00,-1.478267107715625821e-03,-9.793538734864998929e+00
0.000000000000000000e+00,-1.478267147302758655e-03,-9.793538735576881038e+00
0.000000000000000000e+00,-1.478267186889891272e-03,-9.793538736288763147e+00
0.000000000000000000e+00,-1.478267226477022805e-03,-9.793538737000645256e+00
0.000000000000000000e+00,-1.478267266064154338e-03,-9.793538737712525588e+00
0.000000000000000000e+00,-1.478267305651285871e-03,-9.793538738424407697e+00
0.000000000000000000e+00,-1.478267345238416970e-03,-9.793538739136289806e+00
0.000000000000000000e+00,-1.478267384825547202e-03,-9.793538739848171915e+00
0.000000000000000000e+00,-1.478267424412677217e-03,-9.793538740560055800e+00
0.000000000000000000e+00,-1.478267463999807015e-03,-9.793538741271941461e+00
0.000000000000000000e+00,-1.478267503586935946e-03,-9.793538741983823570e+00
0.000000000000000000e+00,-1.478267543174065311e-03,-9.793538742695705679e+00
0.000000000000000000e+00,-1.478267582761194025e-03,-9.793538743407587788e+00
0.000000000000000000e+00,-1.478267622348322305e-03,-9.793538744119469897e+00
0.000000000000000000e+00,-1.478267661935450152e-03,-9.793538744831352005e+00
0.000000000000000000e+00,-1.478267701522577564e-03,-9.793538745543232338e+00
0.000000000000000000e+00,-1.478267741109704977e-03,-9.793538746255116223e+00
0.000000000000000000e+00,-1.478267780696831523e-03,-9.793538746967000108e+00
0.000000000000000000e+00,-1.478267820283958069e-03,-9.793538747678882217e+00
0.000000000000000000e+00,-1.478267859871083964e-03,-9.793538748390764326e+00
0.000000000000000000e+00,-1.478267899458209859e-03,-9.793538749102646435e+00
0.000000000000000000e+00,-1.478267939045334886e-03,-9.793538749814528543e+00
0.000000000000000000e+00,-1.478267978632459697e-03,-9.793538750526410652e+00
0.000000000000000000e+00,-1.478268018219584291e-03,-9.793538751238292761e+00
0.000000000000000000e+00,-1.478268057806708235e-03,-9.793538751950178423e+00
0.000000000000000000e+00,-1.478268097393832178e-03,-9.793538752662060531e+00
0.000000000000000000e+00,-1.478268136980956122e-03,-9.793538753373940864e+00
0.000000000000000000e+00,-1.478268176568078981e-03,-9.793538754085824749e+00
0.000000000000000000e+00,-1.478268216155201624e-03,-9.793538754797706858e+00
0.000000000000000000e+00,-1.478268255742323616e-03,-9.793538755509588967e+00
0.000000000000000000e+00,-1.478268295329445824e-03,-9.793538756221472852e+00
0.000000000000000000e+00,-1.478268334916567383e-03,-9.793538756933354961e+00
0.000000000000000000e+00,-1.478268374503688290e-03,-9.793538757645238846e+00
0.000000000000000000e+00,-1.478268414090809415e-03,-9.793538758357120955e+00
0.000000000000000000e+00,-1.478268453677930106e-03,-9.793538759069003063e+00
0.000000000000000000e+00,-1.478268493265049712e-03,-9.793538759780885172e+00
0.000000000000000000e+00,-1.478268532852169536e-03,-9.793538760492767281e+00
0.000000000000000000e+00,-1.478268572439289143e-03,-9.793538761204649390e+00
0.000000000000000000e+00,-1.478268612026407882e-03,-9.793538761916533275e+00
0.000000000000000000e+00,-1.478268651613526621e-03,-9.793538762628415384e+00
0.000000000000000000e+00,-1.478268691200644493e-03,-9.793538763340297493e+00
0.000000000000000000e+00,-1.478268730787762799e-03,-9.793538764052183154e+00
0.000000000000000000e+00,-1.478268770374879804e-03,-9.793538764764065263e+00
0.000000000000000000e+00,-1.478268809961997242e-03,-9.793538765475947372e+00
0.000000000000000000e+00,-1.478268849549113813e-03,-9.793538766187831257e+00
0.000000000000000000e+00,-1.478268889136230167e-03,-9.793538766899713366e+00
0.000000000000000000e+00,-1.478268928723346087e-03,-9.793538767611599027e+00
0.000000000000000000e+00,-1.478268968310461574e-03,-9.793538768323479360e+00
0.000000000000000000e+00,-1.478269007897576844e-03,-9.793538769035361469e+00
0.000000000000000000e+00,-1.478269047484691897e-03,-9.793538769747245354e+00
0.000000000000000000e+00,-1.478269087071806516e-03,-9.793538770459127463e+00
0.000000000000000000e+00,-1.478269126658920485e-03,-9.793538771171011348e+00
0.000000000000000000e+00,-1.478269166246034237e-03,-9.793538771882893457e+00
0.000000000000000000e+00,-1.478269205833147555e-03,-9.793538772594775565e+00
0.000000000000000000e+00,-1.478269245420260874e-03,-9.793538773306657674e+00
0.000000000000000000e+00,-1.478269285007373325e-03,-9.793538774018541559e+00
0.000000000000000000e+00,-1.478269324594485342e-03,-9.793538774730425445e+00
0.000000000000000000e+00,-1.478269364181597142e-03,-9.793538775442307553e+00
0.000000000000000000e+00,-1.478269403768709377e-03,-9.793538776154189662e+00
0.000000000000000000e+00,-1.478269443355820310e-03,-9.793538776866071771e+00
0.000000000000000000e+00,-1.478269482942930809e-03,-9.793538777577959209e+00
0.000000000000000000e+00,-1.478269522530041308e-03,-9.793538778289841318e+00
0.000000000000000000e+00,-1.478269562117151374e-03,-9.793538779001723427e+00
0.000000000000000000e+00,-1.478269601704261223e-03,-9.793538779713605535e+00
0.000000000000000000e+00,-1.478269641291369988e-03,-9.793538780425489421e+00
0.000000000000000000e+00,-1.478269680878479186e-03,-9.793538781137373306e+00
0.000000000000000000e+00,-1.478269720465587951e-03,-9.793538781849257191e+00
0.000000000000000000e+00,-1.478269760052696065e-03,-9.793538782561139300e+00
0.000000000000000000e+00,-1.478269799639803745e-03,-9.793538783273019632e+00
0.000000000000000000e+00,-1.478269839226910992e-03,-9.793538783984903517e+00
0.000000000000000000e+00,-1.478269878814018456e-03,-9.793538784696787403e+00
0.000000000000000000e+00,-1.478269918401124618e-03,-9.793538785408669511e+00
0.000000000000000000e+00,-1.478269957988231215e-03,-9.793538786120553397e+00
0.000000000000000000e+00,-1.478269997575337160e-03,-9.793538786832437282e+00
0.000000000000000000e+00,-1.478270037162442672e-03,-9.793538787544321167e+00
0.000000000000000000e+00,-1.478270076749547968e-03,-9.793538788256203276e+00
0.000000000000000000e+00,-1.478270116336653046e-03,-9.793538788968085385e+00
0.000000000000000000e+00,-1.478270155923757040e-03,-9.793538789679971046e+00
0.000000000000000000e+00,-1.478270195510861251e-03,-9.793538790391854931e+00
0.000000000000000000e+00,-1.478270235097965245e-03,-9.793538791103735264e+00
0.000000000000000000e+00,-1.478270274685068372e-03,-9.793538791815620925e+00
0.000000000000000000e+00,-1.478270314272171065e-03,-9.793538792527503034e+00
0.000000000000000000e+00,-1.478270353859273975e-03,-9.793538793239386919e+00
0.000000000000000000e+00,-1.478270393446376452e-03,-9.793538793951269028e+00
0.000000000000000000e+00,-1.478270433033477844e-03,-9.793538794663154690e+00
0.000000000000000000e+00,-1.478270472620579236e-03,-9.793538795375036798e+00
0.000000000000000000e+00,-1.478270512207680628e-03,-9.793538796086918907e+00
0.000000000000000000e+00,-1.478270551794781153e-03,-9.793538796798802792e+00
0.000000000000000000e+00,-1.478270591381881894e-03,-9.793538797510686678e+00
0.000000000000000000e+00,-1.478270630968981768e-03,-9.793538798222568786e+00
0.000000000000000000e+00,-1.478270670556081426e-03,-9.793538798934450895e+00
0.000000000000000000e+00,-1.478270710143180650e-03,-9.793538799646338333e+00
0.000000000000000000e+00,-1.478270749730279223e-03,-9.793538800358220442e+00
0.000000000000000000e+00,-1.478270789317378013e-03,-9.793538801070102551e+00
0.000000000000000000e+00,-1.478270828904476152e-03,-9.793538801781988212e+00
0.000000000000000000e+00,-1.478270868491574075e-03,-9.793538802493872097e+00
0.000000000000000000e+00,-1.478270908078671564e-03,-9.793538803205754206e+00
0.000000000000000000e+00,-1.478270947665768185e-03,-9.793538803917636315e+00
0.000000000000000000e+00,-1.478270987252865024e-03,-9.793538804629521977e+00
0.000000000000000000e+00,-1.478271026839960995e-03,-9.793538805341404085e+00
0.000000000000000000e+00,-1.478271066427057183e-03,-9.793538806053286194e+00
0.000000000000000000e+00,-1.478271106014152720e-03,-9.793538806765170079e+00
0.000000000000000000e+00,-1.478271145601247607e-03,-9.793538807477053965e+00
0.000000000000000000e+00,-1.478271185188342928e-03,-9.793538808188937850e+00
0.000000000000000000e+00,-1.478271224775437164e-03,-9.793538808900821735e+00
0.000000000000000000e+00,-1.478271264362530967e-03,-9.793538809612703844e+00
0.000000000000000000e+00,-1.478271303949624986e-03,-9.793538810324587729e+00
0.000000000000000000e+00,-1.478271343536718355e-03,-9.793538811036475167e+00
0.000000000000000000e+00,-1.478271383123811074e-03,-9.793538811748357276e+00
0.000000000000000000e+00,-1.478271422710903792e-03,-9.793538812460239384e+00
0.000000000000000000e+00,-1.478271462297995643e-03,-9.793538813172123270e+00
0.000000000000000000e+00,-1.478271501885087711e-03,-9.793538813884007155e+00
0.000000000000000000e+00,-1.478271541472178912e-03,-9.793538814595889264e+00
0.000000000000000000e+00,-1.478271581059270329e-03,-9.793538815307774925e+00
0.000000000000000000e+00,-1.478271620646361096e-03,-9.793538816019657034e+00
0.000000000000000000e+00,-1.478271660233451213e-03,-9.793538816731540919e+00
0.000000000000000000e+00,-1.478271699820541112e-03,-9.793538817443426581e+00
0.000000000000000000e+00,-1.478271739407630578e-03,-9.793538818155308689e+00
0.000000000000000000e+00,-1.478271778994719827e-03,-9.793538818867192575e+00
0.000000000000000000e+00,-1.478271818581808859e-03,-9.793538819579080013e+00
0.000000000000000000e+00,-1.478271858168897241e-03,-9.793538820290962121e+00
0.000000000000000000e+00,-1.478271897755985406e-03,-9.793538821002842454e+00
0.000000000000000000e+00,-1.478271937343073137e-03,-9.793538821714728115e+00
0.000000000000000000e+00,-1.478271976930160434e-03,-9.793538822426612001e+00
0.000000000000000000e+00,-1.478272016517247081e-03,-9.793538823138494109e+00
0.000000000000000000e+00,-1.478272056104333512e-03,-9.793538823850379771e+00
0.000000000000000000e+00,-1.478272095691419942e-03,-9.793538824562263656e+00
0.000000000000000000e+00,-1.478272135278505938e-03,-9.793538825274147541e+00
0.000000000000000000e+00,-1.478272174865591501e-03,-9.793538825986031426e+00
0.000000000000000000e+00,-1.478272214452676630e-03,-9.793538826697915312e+00
0.000000000000000000e+00,-1.478272254039761108e-03,-9.793538827409799197e+00
0.000000000000000000e+00,-1.478272293626845587e-03,-9.793538828121679529e+00
0.000000000000000000e+00,-1.478272333213929632e-03,-9.793538828833563414e+00
0.000000000000000000e+00,-1.478272372801013243e-03,-9.793538829545450852e+00
0.000000000000000000e+00,-1.478272412388096637e-03,-9.793538830257334737e+00
0.000000000000000000e+00,-1.478272451975179815e-03,-9.793538830969220399e+00
0.000000000000000000e+00,-1.478272491562261908e-03,-9.793538831681102508e+00
0.000000000000000000e+00,-1.478272531149344218e-03,-9.793538832392986393e+00
0.000000000000000000e+00,-1.478272570736426095e-03,-9.793538833104872054e+00
0.000000000000000000e+00,-1.478272610323507104e-03,-9.793538833816754163e+00
0.000000000000000000e+00,-1.478272649910588330e-03,-9.793538834528639825e+00
0.000000000000000000e+00,-1.478272689497669122e-03,-9.793538835240523710e+00
0.000000000000000000e+00,-1.478272729084749264e-03,-9.793538835952404042e+00
0.000000000000000000e+00,-1.478272768671829406e-03,-9.793538836664291480e+00
0.000000000000000000e+00,-1.478272808258908897e-03,-9.793538837376175366e+00
0.000000000000000000e+00,-1.478272847845987954e-03,-9.793538838088059251e+00
0.000000000000000000e+00,-1.478272887433066795e-03,-9.793538838799943136e+00
0.000000000000000000e+00,-1.478272927020145202e-03,-9.793538839511827021e+00
0.000000000000000000e+00,-1.478272966607223175e-03,-9.793538840223710906e+00
0.000000000000000000e+00,-1.478273006194300715e-03,-9.793538840935594791e+00
0.000000000000000000e+00,-1.478273045781378255e-03,-9.793538841647480453e+00
0.000000000000000000e+00,-1.478273085368455144e-03,-9.793538842359362562e+00
0.000000000000000000e+00,-1.478273124955531599e-03,-9.793538843071246447e+00
0.000000000000000000e+00,-1.478273164542607838e-03,-9.793538843783132108e+00
0.000000000000000000e+00,-1.478273204129683860e-03,-9.793538844495015994e+00
0.000000000000000000e+00,-1.478273243716759231e-03,-9.793538845206901655e+00
0.000000000000000000e+00,-1.478273283303834385e-03,-9.793538845918783764e+00
0.000000000000000000e+00,-1.478273322890908889e-03,-9.793538846630669426e+00
0.000000000000000000e+00,-1.478273362477983393e-03,-9.793538847342553311e+00
0.000000000000000000e+00,-1.478273402065057463e-03,-9.793538848054435419e+00
0.000000000000000000e+00,-1.478273441652130666e-03,-9.793538848766321081e+00
0.000000000000000000e+00,-1.478273481239204086e-03,-9.793538849478204966e+00
0.000000000000000000e+00,-1.478273520826277072e-03,-9.793538850190090628e+00
0.000000000000000000e+00,-1.478273560413349624e-03,-9.793538850901970960e+00
0.000000000000000000e+00,-1.478273600000421743e-03,-9.793538851613858398e+00
0.000000000000000000e+00,-1.478273639587493211e-03,-9.793538852325742283e+00
0.000000000000000000e+00,-1.478273679174564679e-03,-9.793538853037624392e+00
0.000000000000000000e+00,-1.478273718761635713e-03,-9.793538853749510054e+00
0.000000000000000000e+00,-1.478273758348706097e-03,-9.793538854461393939e+00
0.000000000000000000e+00,-1.478273797935776481e-03,-9.793538855173279600e+00
0.000000000000000000e+00,-1.478273837522846215e-03,-9.793538855885163485e+00
0.000000000000000000e+00,-1.478273877109915731e-03,-9.793538856597049147e+00
0.000000000000000000e+00,-1.478273916696985031e-03,-9.793538857308933032e+00
0.000000000000000000e+00,-1.478273956284053680e-03,-9.793538858020818694e+00
0.000000000000000000e+00,-1.478273995871122112e-03,-9.793538858732700803e+00
0.000000000000000000e+00,-1.478274035458190111e-03,-9.793538859444586464e+00
0.000000000000000000e+00,-1.478274075045257893e-03,-9.793538860156470349e+00
0.000000000000000000e+00,-1.478274114632325241e-03,-9.793538860868356011e+00
0.000000000000000000e+00,-1.478274154219391722e-03,-9.793538861580238120e+00
0.000000000000000000e+00,-1.478274193806458203e-03,-9.793538862292125557e+00
0.000000000000000000e+00,-1.478274233393524466e-03,-9.793538863004007666e+00
0.000000000000000000e+00,-1.478274272980590297e-03,-9.793538863715891551e+00
0.000000000000000000e+00,-1.478274312567656127e-03,-9.793538864427777213e+00
0.000000000000000000e+00,-1.478274352154720873e-03,-9.793538865139661098e+00
0.000000000000000000e+00,-1.478274391741785619e-03,-9.793538865851546760e+00
0.000000000000000000e+00,-1.478274431328849932e-03,-9.793538866563430645e+00
0.000000000000000000e+00,-1.478274470915913377e-03,-9.793538867275314530e+00
0.000000000000000000e+00,-1.478274510502977255e-03,-9.793538867987200192e+00
0.000000000000000000e+00,-1.478274550090040700e-03,-9.793538868699084077e+00
0.000000000000000000e+00,-1.478274589677103278e-03,-9.793538869410967962e+00
0.000000000000000000e+00,-1.478274629264165856e-03,-9.793538870122853623e+00
0.000000000000000000e+00,-1.478274668851227783e-03,-9.793538870834737509e+00
0.000000000000000000e+00,-1.478274708438289276e-03,-9.793538871546624947e+00
0.000000000000000000e+00,-1.478274748025350770e-03,-9.793538872258508832e+00
0.000000000000000000e+00,-1.478274787612411613e-03,-9.793538872970394493e+00
0.000000000000000000e+00,-1.478274827199472456e-03,-9.793538873682274826e+00
0.000000000000000000e+00,-1.478274866786532431e-03,-9.793538874394162264e+00
0.000000000000000000e+00,-1.478274906373592190e-03,-9.793538875106044372e+00
0.000000000000000000e+00,-1.478274945960651732e-03,-9.793538875817931810e+00
0.000000000000000000e+00,-1.478274985547711057e-03,-9.793538876529813919e+00
0.000000000000000000e+00,-1.478275025134769514e-03,-9.793538877241701357e+00
0.000000000000000000e+00,-1.478275064721827972e-03,-9.793538877953585242e+00
0.000000000000000000e+00,-1.478275104308885562e-03,-9.793538878665470904e+00
0.000000000000000000e+00,-1.478275143895943586e-03,-9.793538879377356565e+00
0.000000000000000000e+00,-1.478275183483000743e-03,-9.793538880089240450e+00
0.000000000000000000e+00,-1.478275223070057466e-03,-9.793538880801126112e+00
0.000000000000000000e+00,-1.478275262657114406e-03,-9.793538881513008221e+00
0.000000000000000000e+00,-1.478275302244170045e-03,-9.793538882224893882e+00
0.000000000000000000e+00,-1.478275341831225900e-03,-9.793538882936777767e+00
0.000000000000000000e+00,-1.478275381418281105e-03,-9.793538883648665205e+00
0.000000000000000000e+00,-1.478275421005336527e-03,-9.793538884360549091e+00
0.000000000000000000e+00,-1.478275460592391299e-03,-9.793538885072434752e+00
0.000000000000000000e+00,-1.478275500179444986e-03,-9.793538885784318637e+00
0.000000000000000000e+00,-1.478275539766499107e-03,-9.793538886496204299e+00
0.000000000000000000e+00,-1.478275579353552360e-03,-9.793538887208088184e+00
0.000000000000000000e+00,-1.478275618940605831e-03,-9.793538887919973845e+00
0.000000000000000000e+00,-1.478275658527658217e-03,-9.793538888631859507e+00
0.000000000000000000e+00,-1.478275698114711037e-03,-9.793538889343743392e+00
0.000000000000000000e+00,-1.478275737701763206e-03,-9.793538890055629054e+00
0.000000000000000000e+00,-1.478275777288814725e-03,-9.793538890767512939e+00
0.000000000000000000e+00,-1.478275816875866244e-03,-9.793538891479398600e+00
0.000000000000000000e+00,-1.478275856462916895e-03,-9.793538892191282486e+00
0.000000000000000000e+00,-1.478275896049967546e-03,-9.793538892903169923e+00
0.000000000000000000e+00,-1.478275935637017764e-03,-9.793538893615052032e+00
0.000000000000000000e+00,-1.478275975224066898e-03,-9.793538894326939470e+00
0.000000000000000000e+00,-1.478276014811116465e-03,-9.793538895038825132e+00
0.000000000000000000e+00,-1.478276054398165599e-03,-9.793538895750710793e+00
0.000000000000000000e+00,-1.478276093985214298e-03,-9.793538896462594678e+00
0.000000000000000000e+00,-1.478276133572262781e-03,-9.793538897174476787e+00
0.000000000000000000e+00,-1.478276173159310831e-03,-9.793538897886364225e+00
0.000000000000000000e+00,-1.478276212746358446e-03,-9.793538898598248110e+00
0.000000000000000000e+00,-1.478276252333405195e-03,-9.793538899310133772e+00
0.000000000000000000e+00,-1.478276291920451943e-03,-9.793538900022021210e+00
0.000000000000000000e+00,-1.478276331507498475e-03,-9.793538900733905095e+00
0.000000000000000000e+00,-1.478276371094544789e-03,-9.793538901445792533e+00
0.000000000000000000e+00,-1.478276410681590453e-03,-9.793538902157674642e+00
0.000000000000000000e+00,-1.478276450268635467e-03,-9.793538902869562079e+00
0.000000000000000000e+00,-1.478276489855680914e-03,-9.793538903581445965e+00
0.000000000000000000e+00,-1.478276529442725060e-03,-9.793538904293328073e+00
0.000000000000000000e+00,-1.478276569029769640e-03,-9.793538905005217288e+00
0.000000000000000000e+00,-1.478276608616813570e-03,-9.793538905717101173e+00
0.000000000000000000e+00,-1.478276648203856848e-03,-9.793538906428986834e+00
0.000000000000000000e+00,-1.478276687790899910e-03,-9.793538907140872496e+00
0.000000000000000000e+00,-1.478276727377942322e-03,-9.793538907852756381e+00
0.000000000000000000e+00,-1.478276766964985167e-03,-9.793538908564643819e+00
0.000000000000000000e+00,-1.478276806552026928e-03,-9.793538909276527704e+00
0.000000000000000000e+00,-1.478276846139068689e-03,-9.793538909988413366e+00
0.000000000000000000e+00,-1.478276885726109583e-03,-9.793538910700300804e+00
0.000000000000000000e+00,-1.478276925313150693e-03,-9.793538911412182912e+00
0.000000000000000000e+00,-1.478276964900190936e-03,-9.793538912124068574e+00
0.000000000000000000e+00,-1.478277004487231396e-03,-9.793538912835956012e+00
0.000000000000000000e+00,-1.478277044074271206e-03,-9.793538913547838121e+00
0.000000000000000000e+00,-1.478277083661310148e-03,-9.793538914259725559e+00
0.000000000000000000e+00,-1.478277123248349523e-03,-9.793538914971609444e+00
0.000000000000000000e+00,-1.478277162835388032e-03,-9.793538915683496882e+00
0.000000000000000000e+00,-1.478277202422426106e-03,-9.793538916395382543e+00
0.000000000000000000e+00,-1.478277242009464181e-03,-9.793538917107266428e+00
0.000000000000000000e+00,-1.478277281596501389e-03,-9.793538917819152090e+00
0.000000000000000000e+00,-1.478277321183538813e-03,-9.793538918531039528e+00
0.000000000000000000e+00,-1.478277360770575803e-03,-9.793538919242921637e+00
0.000000000000000000e+00,-1.478277400357611926e-03,-9.793538919954807298e+00
0.000000000000000000e+00,-1.478277439944648049e-03,-9.793538920666696512e+00
0.000000000000000000e+00,-1.478277479531683739e-03,-9.793538921378580397e+00
0.000000000000000000e+00,-1.478277519118718778e-03,-9.793538922090464283e+00
0.000000000000000000e+00,-1.478277558705753600e-03,-9.793538922802351721e+00
0.000000000000000000e+00,-1.478277598292788422e-03,-9.793538923514237382e+00
0.000000000000000000e+00,-1.478277637879822810e-03,-9.793538924226123044e+00
0.000000000000000000e+00,-1.478277677466856548e-03,-9.793538924938010481e+00
0.000000000000000000e+00,-1.478277717053889852e-03,-9.793538925649894367e+00
0.000000000000000000e+00,-1.478277756640923157e-03,-9.793538926361778252e+00
0.000000000000000000e+00,-1.478277796227955810e-03,-9.793538927073663913e+00
0.000000000000000000e+00,-1.478277835814988030e-03,-9.793538927785549575e+00
0.000000000000000000e+00,-1.478277875402019817e-03,-9.793538928497435236e+00
0.000000000000000000e+00,-1.478277914989051603e-03,-9.793538929209320898e+00
0.000000000000000000e+00,-1.478277954576082956e-03,-9.793538929921208336e+00
0.000000000000000000e+00,-1.478277994163113441e-03,-9.793538930633093997e+00
0.000000000000000000e+00,-1.478278033750144143e-03,-9.793538931344979659e+00
0.000000000000000000e+00,-1.478278073337173978e-03,-9.793538932056863544e+00
0.000000000000000000e+00,-1.478278112924203812e-03,-9.793538932768750982e+00
0.000000000000000000e+00,-1.478278152511233214e-03,-9.793538933480636643e+00
0.000000000000000000e+00,-1.478278192098261964e-03,-9.793538934192518752e+00
0.000000000000000000e+00,-1.478278231685290715e-03,-9.793538934904407967e+00
0.000000000000000000e+00,-1.478278271272318815e-03,-9.793538935616293628e+00
0.000000000000000000e+00,-1.478278310859346698e-03,-9.793538936328177513e+00
0.000000000000000000e+00,-1.478278350446373931e-03,-9.793538937040063175e+00
0.000000000000000000e+00,-1.478278390033401380e-03,-9.793538937751950613e+00
0.000000000000000000e+00,-1.478278429620428179e-03,-9.793538938463836274e+00
0.000000000000000000e+00,-1.478278469207454328e-03,-9.793538939175723712e+00
0.000000000000000000e+00,-1.478278508794480476e-03,-9.793538939887609374e+00
0.000000000000000000e+00,-1.478278548381506408e-03,-9.793538940599495035e+00
0.000000000000000000e+00,-1.478278587968531038e-03,-9.793538941311378920e+00
0.000000000000000000e+00,-1.478278627555556102e-03,-9.793538942023264582e+00
0.000000000000000000e+00,-1.478278667142580733e-03,-9.793538942735150243e+00
0.000000000000000000e+00,-1.478278706729604930e-03,-9.793538943447035905e+00
0.000000000000000000e+00,-1.478278746316628693e-03,-9.793538944158925119e+00
0.000000000000000000e+00,-1.478278785903651806e-03,-9.793538944870810781e+00
0.000000000000000000e+00,-1.478278825490674919e-03,-9.793538945582696442e+00
0.000000000000000000e+00,-1.478278865077697598e-03,-9.793538946294580327e+00
0.000000000000000000e+00,-1.478278904664719843e-03,-9.793538947006467765e+00
0.000000000000000000e+00,-1.478278944251741871e-03,-9.793538947718355203e+00
0.000000000000000000e+00,-1.478278983838763249e-03,-9.793538948430239088e+00
0.000000000000000000e+00,-1.478279023425784627e-03,-9.793538949142124750e+00
0.000000000000000000e+00,-1.478279063012805355e-03,-9.793538949854010411e+00
